#timestamp [ns], temperature [degC], w_RS_S_x [rad s^-1], w_RS_S_y [rad s^-1], w_RS_S_z [rad s^-1], a_RS_S_x [m s^-2], a_RS_S_y [m s^-2], a_RS_S_z [m s^-2]
1891009351074750, 0, -0.1777396, -0.0553131, -0.1985959, 0.0031435, 8.8524413, -4.6830116
1891009361037750, 0, -0.2537667, 0.0012440, -0.2575192, 0.3915857, 9.0308702, -4.7666876
1891009370999750, 0, -0.3302458, 0.1078695, -0.3052116, 0.4358936, 8.9738388, -4.4855722
1891009380961750, 0, -0.3704220, 0.1834431, -0.3419531, 0.2260300, 8.9551277, -4.0377036
1891009390923750, 0, -0.3726319, 0.1707387, -0.3590783, -0.1142125, 8.8082831, -3.7995488
1891009400885750, 0, -0.3488336, 0.1576695, -0.3389812, -0.4381389, 8.5270180, -3.5280135
1891009410848750, 0, -0.3105027, 0.1401129, -0.2913724, -0.6815327, 8.2529379, -3.2811768
1891009420810750, 0, -0.2337480, 0.0954429, -0.2686621, -0.5195695, 8.2436572, -3.1148726
1891009430772750, 0, -0.1390719, -0.0068398, -0.2937587, -0.0984952, 8.3692461, -3.2542328
1891009440734750, 0, -0.0739973, -0.0447129, -0.3115914, 0.1490900, 8.4623524, -3.4540672
1891009450696750, 0, -0.0836677, -0.0178307, -0.2955731, 0.1202000, 8.3472418, -3.7305423
1891009460659750, 0, -0.1552279, 0.0068957, -0.2738800, 0.0357756, 8.3502356, -4.2248145
1891009470621750, 0, -0.2620897, 0.0140807, -0.2544600, -0.0299377, 8.4464854, -4.5661047
1891009480583750, 0, -0.3549623, -0.0312943, -0.2318119, -0.0941542, 8.5132466, -4.6777725
1891009490545750, 0, -0.4329863, -0.0583717, -0.1972995, -0.1080753, 8.5692302, -4.5975394
1891009500507750, 0, -0.4872091, -0.1071131, -0.1878565, 0.0687071, 8.8079837, -4.5044330
1891009510470750, 0, -0.5327081, -0.1074428, -0.2126832, 0.4607419, 9.1262219, -4.6544211
1891009520432750, 0, -0.5836488, -0.0327284, -0.2396903, 0.8062234, 9.1582553, -4.7985713
1891009530394750, 0, -0.6445388, -0.0332576, -0.2598191, 0.6879694, 9.1103549, -5.0460068
1891009540356750, 0, -0.7108150, -0.1167338, -0.2452644, 0.2689906, 9.2991124, -5.1959949
1891009550318750, 0, -0.7910544, -0.2460609, -0.2016729, 0.0384700, 9.3585388, -4.9398775
1891009560281750, 0, -0.8632762, -0.2960854, -0.1070577, 0.1288820, 9.1872949, -4.5749364
1891009570243750, 0, -0.9322169, -0.2227279, 0.0095413, 0.2745291, 9.2633368, -3.7848793
1891009580205750, 0, -0.9017975, -0.1086868, 0.0659718, 0.7797285, 9.5248430, -2.9859906
1891009590167750, 0, -0.7297400, -0.0503748, 0.0356786, 1.3458513, 10.0553398, -2.1291724
1891009600129750, 0, -0.4631887, -0.0910886, -0.0873014, 1.7546512, 10.8100703, -1.6437318
1891009610092750, 0, -0.2049177, -0.1388569, -0.2218062, 1.7800983, 11.2308453, -1.6613951
1891009620054750, 0, 0.0020157, -0.1521762, -0.2768524, 1.2156221, 11.1428284, -1.9249969
1891009630016750, 0, 0.1397006, -0.2383705, -0.2332191, 0.2433939, 10.9227859, -2.5256978
1891009639978750, 0, 0.1720833, -0.4072719, -0.1183983, -0.6635701, 10.8278833, -3.4227823
1891009649940750, 0, 0.0865069, -0.4468864, 0.0396526, -0.9026230, 10.7277415, -3.9221439
1891009659903750, 0, -0.0401301, -0.3203777, 0.1877811, -0.6021977, 10.5410797, -3.7958066
1891009669865750, 0, -0.1341562, -0.2561005, 0.2574915, -0.0516426, 10.5558989, -3.5735188
1891009679827750, 0, -0.1597108, -0.2356264, 0.2374094, 0.5748047, 10.9796677, -3.2612682
1891009689789750, 0, -0.1171791, -0.1603583, 0.1216849, 1.2469070, 11.2288994, -2.5267456
1891009699751750, 0, -0.0346110, -0.0882199, -0.0087203, 1.5341597, 11.1049571, -1.7991087
1891009709714750, 0, 0.0857863, -0.0459358, -0.0811723, 1.1497591, 10.7362738, -1.3283377
1891009719676750, 0, 0.2393087, 0.0101195, -0.0556092, 0.3315605, 10.2903511, -0.8357121
1891009729638750, 0, 0.4034274, 0.0365026, 0.0328032, -0.5116360, 9.6579163, -0.7203021
1891009739600750, 0, 0.5559669, -0.0139763, 0.1278541, -1.1178754, 9.2480685, -1.1225157
1891009749562750, 0, 0.6968393, -0.1088700, 0.2145456, -1.3443544, 8.9401588, -1.5461348
1891009759525750, 0, 0.7813712, -0.2110840, 0.2551159, -1.1904744, 8.7612808, -2.1945863
1891009769487750, 0, 0.7400618, -0.2266134, 0.2465419, -0.6938072, 8.6687732, -3.1129266
1891009779449750, 0, 0.5798530, -0.0993149, 0.2296545, -0.2115102, 8.3117656, -3.8248462
1891009789411750, 0, 0.3745901, 0.1511991, 0.2395793, 0.1645079, 7.7273808, -4.1192839
1891009799373750, 0, 0.2016908, 0.3628498, 0.2515097, 0.3278183, 7.2852003, -4.2513094
1891009809336750, 0, 0.0770074, 0.4253063, 0.2360876, 0.3736230, 7.0708461, -4.6295728
1891009819298750, 0, 0.0001222, 0.3732175, 0.2140319, 0.5063969, 6.6261209, -4.9858319
1891009829260750, 0, -0.0358443, 0.3051589, 0.2153597, 0.5809419, 6.1478654, -5.0525931
1891009839222750, 0, -0.0674861, 0.2272577, 0.2165667, 0.6282436, 5.9469832, -5.2730846
1891009849184750, 0, -0.1102061, 0.1744149, 0.2309930, 0.7375163, 5.6892192, -5.4802538
1891009859147750, 0, -0.1635343, 0.1599811, 0.2644189, 0.9083112, 5.5085449, -5.4816010
1891009869109750, 0, -0.2484311, 0.1449822, 0.2955725, 1.1189232, 5.5964122, -5.4896841
1891009879071750, 0, -0.3373218, 0.1322467, 0.2916244, 1.5479311, 5.6550902, -5.5506075
1891009889033750, 0, -0.3928357, 0.0880436, 0.2536078, 1.9842737, 5.7645126, -5.3860995
1891009898995750, 0, -0.4329312, 0.0546939, 0.2168926, 2.1429437, 5.9526714, -4.9999026
1891009908958750, 0, -0.4730283, 0.0482765, 0.1494925, 2.3917264, 6.1716660, -4.4831772
1891009918920750, 0, -0.4672838, 0.0016440, 0.0209772, 2.7307713, 6.3478496, -3.9601648
1891009928882750, 0, -0.4221566, -0.0218797, -0.1004110, 2.6824219, 6.5485822, -3.3876054
1891009938844750, 0, -0.3717360, -0.0830866, -0.1533624, 1.9932550, 6.6964746, -3.0793964
1891009948806750, 0, -0.3494177, -0.1510457, -0.1780193, 1.2745995, 6.9268456, -3.0389804
1891009958769750, 0, -0.3699757, -0.1628872, -0.1668902, 0.8945398, 7.2901401, -2.9871881
1891009968731750, 0, -0.3920583, -0.0600452, -0.1274083, 0.8476872, 7.6360707, -2.9960197
1891009978693750, 0, -0.3372926, -0.0313342, -0.1629005, 0.9385483, 8.1209125, -2.9990135
1891009988655750, 0, -0.2062618, -0.2571367, -0.2804210, 0.6405180, 8.6322491, -3.2079790
1891009998617750, 0, 0.0123075, -0.5453200, -0.3628328, 0.1287323, 9.2473201, -3.0973590
1891010008580750, 0, 0.2558725, -0.7569854, -0.3340845, -0.3079097, 9.2305550, -2.6429041
1891010018542750, 0, 0.4462177, -0.8175686, -0.2175227, -0.9988728, 8.9837183, -2.5351282
1891010028504750, 0, 0.6449939, -0.6457092, -0.0338493, -0.7734416, 9.1515193, -1.9761905
1891010038466750, 0, 0.7741631, -0.4053696, 0.0957305, -0.0642165, 8.9091733, -2.2869443
1891010048428750, 0, 0.8648695, -0.3828534, 0.0982440, 0.5586383, 8.5078578, -3.5087036
1891010058391750, 0, 0.9563497, -0.4389925, 0.0659540, 0.9345067, 8.4928889, -4.1995171
1891010068353750, 0, 0.9581531, -0.2803512, 0.0927227, 1.0306068, 8.4901945, -4.3658212
1891010078315750, 0, 0.9992114, 0.0223303, 0.1008771, 1.7345929, 8.3801733, -4.2204735
1891010088277750, 0, 1.1259073, 0.0866417, 0.0202595, 2.6183551, 8.8552853, -4.5876599
1891010098239750, 0, 1.2963054, -0.1114538, -0.0844883, 2.9232710, 9.3627301, -5.7743921
1891010108202750, 0, 1.3676025, -0.3918839, -0.1389265, 2.6836194, 9.5610677, -7.2884935
1891010118164750, 0, 1.2349589, -0.5761557, -0.1475554, 2.3984624, 10.1084793, -9.0251820
1891010128126750, 0, 0.6569262, -0.6983749, -0.2156990, 2.8324100, 11.0871442, -12.3648871
1891010138088875, 0, -1.2372495, -0.6982592, -0.4202133, 4.3902205, 12.6278902, -23.0490692
1891010148050875, 0, -2.0156202, -0.6142565, -0.4481890, 5.5929694, 13.7638779, -27.7659105
1891010158013875, 0, -1.3812346, -0.4241310, -0.4532428, 4.7294151, 12.1538260, -3.1208601
1891010167975875, 0, -0.6467676, -0.7318071, -0.7442678, 5.9757234, 10.7994424, -0.1440005
1891010177937875, 0, 0.0538371, -1.2008361, -1.0840477, 5.6212605, 10.6579866, -0.9660910
1891010187899875, 0, 0.6397858, -1.5501657, -1.1364092, 2.3351440, 12.3255190, -0.3906876
1891010197861875, 0, 0.8825364, -1.7051659, -0.9649663, -1.1930191, 13.0932724, -1.5730788
1891010207824875, 0, 0.8758865, -1.8257596, -0.6521008, -3.7708086, 12.9090056, -2.6569748
1891010217786875, 0, 0.8055785, -2.1328616, -0.2629914, -5.8103174, 13.0976134, -2.5670119
1891010227748875, 0, 0.7394762, -2.3237178, 0.1477474, -6.8175728, 13.5326088, -1.1000624
1891010237710875, 0, 0.6555877, -1.9972239, 0.5686621, -6.1047551, 14.1984242, 1.4141093
1891010247672875, 0, 0.5109589, -1.4705914, 0.8479872, -4.6813651, 14.1930354, 2.5020470
1891010257635875, 0, 0.0199620, -1.0735937, 0.9355831, -3.1213092, 14.8509174, -0.5460645
1891010267597875, 0, -1.2962348, -0.7951791, 0.7686005, -1.0509645, 16.8161806, -11.6963773
1891010277559875, 0, -1.3076518, -0.6657181, 0.7636883, -0.6233038, 16.7018184, -7.4485107
1891010287521875, 0, -0.6573925, -0.9149750, 0.7719151, -2.0029848, 14.4844794, 5.3486774
1891010297483875, 0, -0.2074352, -1.4874966, 0.6977887, -1.9672092, 13.9036871, 2.8122020
1891010307446875, 0, -0.2765336, -1.8455783, 0.7297623, -2.0739372, 13.6992123, -2.3049069
1891010317408875, 0, -0.3004948, -1.8781099, 0.8789241, -2.5032445, 13.0295050, -3.0701157
1891010327370875, 0, -0.1467657, -1.8127261, 1.1233685, -3.0602362, 12.2695354, 1.3588742
1891010337332875, 0, -0.2404688, -1.8035105, 1.2582482, -2.2830524, 12.0354222, -0.4314029
1891010347294875, 0, -0.2655510, -1.7286052, 1.2876158, -0.9383986, 12.4502097, -1.7455202
1891010357256875, 0, -0.1539576, -1.7245673, 1.2005693, 0.1502875, 12.6939029, 0.1664539
1891010367219875, 0, -0.0242089, -1.8229316, 1.0095266, 1.0307565, 12.5178690, -0.5447173
1891010377181875, 0, 0.1082655, -1.8052373, 0.8651342, 0.7667056, 12.1066740, -0.0943039
1891010387143875, 0, 0.1671123, -1.6806093, 0.8088654, -0.2680925, 11.3178145, 0.3637436
1891010397105875, 0, 0.2152047, -1.5404472, 0.8720872, -1.5277231, 10.3041225, -0.0140707
1891010407068875, 0, 0.2733849, -1.3868446, 0.9657940, -2.1742287, 9.5356206, 0.1625620
1891010417030875, 0, 0.3642810, -1.3596615, 1.0809928, -2.1844075, 9.1545131, -0.1058299
1891010426992875, 0, 0.5495686, -1.4113958, 1.1245496, -1.9293379, 9.0889494, 0.0835263
1891010436954875, 0, 0.8043865, -1.5114787, 1.0361267, -0.9550140, 9.5755875, 0.4516109
1891010446916875, 0, 1.0689987, -1.6986866, 1.0057137, -0.5828879, 9.4871214, 0.0052391
1891010456878875, 0, 1.2751602, -1.8523191, 1.0490098, -0.9957294, 9.0540720, -0.0932561
1891010466841875, 0, 1.3536962, -1.9196388, 1.0631171, -0.9626482, 8.8010980, -0.4233197
1891010476803875, 0, 1.3074017, -1.8279778, 1.0076283, -0.4695735, 8.3198488, -0.7144643
1891010486765875, 0, 1.2063280, -1.5644822, 0.9560349, -0.3237767, 7.3152878, -0.3954776
1891010496727875, 0, 1.0253793, -1.2918321, 0.9915255, -0.8783734, 6.2078906, -0.6776408
1891010506689875, 0, 0.8209956, -1.0252084, 1.0926124, -1.6003221, 5.3383488, -1.0587483
1891010516652875, 0, 0.6425982, -0.9543052, 1.2029054, -2.3366409, 5.0049921, -1.6838484
1891010526614875, 0, 0.6552162, -1.1752173, 1.2564738, -2.6387128, 5.2519785, -2.1537213
1891010536576875, 0, 0.7789347, -1.5619978, 1.1286447, -1.7369879, 5.7693027, -1.6856447
1891010546538875, 0, 0.9030486, -1.8191947, 0.8518541, -0.5969586, 5.8836649, -1.8214124
1891010556500875, 0, 0.9892016, -1.8381710, 0.6168725, -0.9758208, 5.5690192, -2.0757335
1891010566463875, 0, 0.9837714, -1.7258501, 0.5538203, -2.4321423, 4.8663803, -2.2453308
1891010576425875, 0, 0.8291635, -1.5991046, 0.6697083, -4.1567061, 3.9094203, -3.1735506
1891010586387875, 0, 0.6633306, -1.3460122, 0.8847503, -4.8910789, 3.6308496, -3.6464172
1891010596349875, 0, 0.5383716, -0.9453617, 0.9982913, -4.2520578, 4.1179367, -3.5381923
1891010606311875, 0, 0.4447010, -0.6268341, 1.0611559, -3.5154396, 4.6749284, -3.8143680
1891010616274875, 0, 0.4784875, -0.4265715, 1.0231870, -3.1275961, 5.4287608, -3.9752834
1891010626236875, 0, 0.5835393, -0.3518470, 1.0161089, -3.4498759, 5.7860678, -3.6884798
1891010636198875, 0, 0.7048168, -0.3623984, 1.0820546, -4.2165816, 6.0923309, -3.6850369
1891010646160875, 0, 0.7909269, -0.4342169, 1.2187333, -5.0015492, 6.5328648, -3.8910086
1891010656122875, 0, 0.8058419, -0.6353181, 1.3146255, -5.1395622, 7.3889346, -4.5009901
1891010666085875, 0, 0.6834782, -0.9319471, 1.4081917, -4.6809160, 7.8597057, -5.2347643
1891010676047875, 0, 0.3926613, -1.3366195, 1.5025939, -3.6054025, 8.4283731, -6.1372375
1891010686009875, 0, 0.2137211, -1.5547377, 1.5297167, -1.8021025, 10.4545596, -5.9704843
1891010695971875, 0, 0.0926423, -1.7650499, 1.2356937, 1.1112891, 10.3660936, -5.9327628
1891010705933875, 0, -0.0392369, -1.6339082, 0.8103893, 2.9943732, 9.0733818, -5.6095848
1891010715896875, 0, -0.2520695, -1.1832409, 0.4751210, 2.3399341, 8.9293813, -5.7091278
1891010725858875, 0, -0.4488654, -0.8424561, 0.3201588, 0.5804929, 9.6803696, -6.1375369
1891010735820875, 0, -0.5218432, -0.7537545, 0.3199327, -1.0752141, 10.2863095, -6.1056532
1891010745782875, 0, -0.3892695, -0.8134609, 0.4037280, -2.1389021, 10.0471069, -5.5160294
1891010755744875, 0, -0.3057224, -1.0332415, 0.4099894, -1.8814375, 10.2247874, -6.9644174
1891010765707875, 0, -0.2456276, -1.2145863, 0.3593020, -0.0476010, 11.3362262, -9.3306967
1891010775669875, 0, -0.1752845, -1.3057777, 0.3483226, 1.1882291, 11.5894995, -7.7007362
1891010785631875, 0, -0.2468133, -1.2349912, 0.3822131, 0.7229965, 11.2345876, -7.9341010
1891010795593875, 0, -0.4287061, -1.0050073, 0.5044637, -0.7339238, 11.4719939, -8.9358179
1891010805555875, 0, -0.6008129, -0.7928510, 0.7065707, -1.6552579, 11.1988120, -8.9480923
1891010815518875, 0, -0.5834240, -0.6359107, 0.8269472, -1.7947678, 11.5700400, -8.6045567
1891010825480875, 0, -0.3152464, -0.5223026, 0.8480629, -1.2629237, 12.0777841, -7.2037697
1891010835442875, 0, 0.1232548, -0.4528010, 0.8050009, -0.3498225, 11.8159785, -5.8791742
1891010845404875, 0, 0.6068289, -0.3067836, 0.6758914, 1.2799883, 11.6269217, -5.1051338
1891010855366875, 0, 0.9536119, 0.0256311, 0.5332730, 3.0867311, 11.4359189, -5.1221983
1891010865329875, 0, 0.9742631, 0.1424338, 0.5182077, 4.7104047, 10.8433012, -6.5416965
1891010875291875, 0, 0.6268693, 0.0766370, 0.4056870, 6.4740372, 10.1689536, -9.3053993
1891010885253875, 0, 0.1344843, 0.0321880, 0.1131726, 8.7256549, 9.3553954, -10.8995842
1891010895215875, 0, -0.1812324, 0.0061921, -0.2648745, 9.4984978, 8.6897296, -10.6760989
1891010905177875, 0, -0.1530654, -0.1303439, -0.5297118, 8.1291454, 8.1694116, -9.3003099
1891010915140875, 0, 0.1472225, -0.3909760, -0.5981020, 5.7499928, 7.4239618, -7.8637473
1891010925102875, 0, 0.5666107, -0.6333175, -0.5534632, 3.8089792, 7.1650003, -6.8891240
1891010935064875, 0, 0.9416543, -0.8117486, -0.5471036, 2.8797116, 8.1251038, -6.8259554
1891010945026875, 0, 1.2691540, -0.9885920, -0.6124077, 2.4480093, 9.7433885, -7.4149805
1891010954988875, 0, 1.2718227, -0.9356290, -0.7821802, 2.0098705, 10.7768394, -7.7142082
1891010964951875, 0, 1.0265378, -0.7133746, -0.8742918, 1.5612534, 10.6427184, -8.2773372
1891010974913875, 0, 0.8003566, -0.3703634, -0.8490533, 1.0725197, 9.3802437, -7.0953951
1891010984875875, 0, 0.6402311, 0.1568730, -0.7314532, 1.0591974, 8.5190845, -5.7091278
1891010994837875, 0, 0.4524775, 0.7232291, -0.5722659, 1.4338683, 8.0471159, -4.7059140
1891011004799875, 0, 0.1852370, 1.1270599, -0.4809480, 1.8657202, 7.7694434, -4.5912524
1891011014762875, 0, -0.1410863, 1.3430502, -0.4626582, 1.7051042, 7.4628809, -4.7623466
1891011024724875, 0, -0.3803756, 1.6485878, -0.4935873, 1.1725117, 6.6354016, -4.2972638
1891011034686875, 0, -0.5037183, 1.9734412, -0.5330522, 0.6589297, 5.0082852, -3.6715649
1891011044648875, 0, -0.5344541, 2.1031768, -0.4286323, -0.4737648, 3.1385234, -3.8603224
1891011054610875, 0, -0.4613516, 2.0752816, -0.2257133, -1.5801141, 1.9049387, -3.7935612
1891011064573875, 0, -0.2979435, 1.7484864, -0.1208545, -1.4923965, 1.4882053, -3.6786003
1891011074535875, 0, 0.0295225, 1.1925765, -0.1583159, -0.6629713, 1.2741504, -3.3911980
1891011084497875, 0, 0.4346250, 0.7094682, -0.3013543, -0.1645079, 0.8647517, -2.5346791
1891011094459875, 0, 0.6856202, 0.3389392, -0.4307437, -0.2228865, 0.6764433, -2.9764105
1891011104421875, 0, 0.6929063, 0.2001584, -0.4958705, -0.8595126, 1.1419753, -4.0180943
1891011114384875, 0, 0.5044475, 0.3742671, -0.5450657, -1.4696439, 1.9017952, -4.7180388
1891011124346875, 0, 0.2343944, 0.7863129, -0.6044907, -1.8579364, 2.3011647, -4.9470625
1891011134309167, 0, -0.0283027, 1.1411688, -0.6119068, -2.6231451, 2.1432431, -4.8695238
1891011144271167, 0, -0.1726269, 1.4060612, -0.6102974, -3.2895593, 2.3399341, -4.6306206
1891011154233167, 0, -0.1758323, 1.5047585, -0.6571802, -3.2407608, 2.6608667, -4.2538541
1891011164196167, 0, -0.0667596, 1.4138820, -0.8277842, -2.4301964, 3.0437704, -3.9245389
1891011174158167, 0, 0.1477636, 1.4236971, -1.1142032, -1.2955559, 3.7279976, -3.2546819
1891011184120167, 0, 0.3353415, 1.6534449, -1.4078268, -0.8298743, 4.5189528, -2.8036697
1891011194082167, 0, 0.3954895, 2.0590839, -1.6883861, -1.0666818, 5.2323692, -3.2623160
1891011204044167, 0, 0.3086878, 2.5163102, -1.9870309, -1.5274237, 6.2911176, -3.8431082
1891011214007167, 0, 0.1307455, 2.6184518, -2.2707195, -1.7128880, 6.7523085, -4.6526248
1891011223969167, 0, -0.0016996, 2.4775076, -2.4998026, -1.5796651, 6.2026515, -5.1603690
1891011233931167, 0, -0.0788104, 2.4556453, -2.6833999, -0.3827541, 5.9344093, -5.2123109
1891011243893167, 0, -0.1266213, 2.4513850, -2.7853236, 1.0283615, 6.2788431, -5.1186058
1891011253855167, 0, 0.0068531, 2.6060090, -2.9094548, 1.4763799, 8.1700104, -5.3248769
1891011263818167, 0, 0.3637702, 2.9259403, -3.0990636, 2.3851401, 10.7983946, -4.3975552
1891011273780167, 0, 0.7475086, 2.9408472, -3.2403114, 3.3045282, 11.1185788, -4.4399171
1891011283742167, 0, 1.0286877, 2.6595008, -3.2065930, 2.9856912, 10.5895789, -5.9911414
1891011293704167, 0, 1.1961555, 2.4208212, -2.9224508, 1.9239491, 10.3255280, -7.3241194
1891011303666167, 0, 1.3107469, 2.1189744, -2.3843069, 1.0195299, 10.1063837, -8.1969543
1891011313629167, 0, 1.0771086, 1.4302953, -1.6616812, 0.8786728, 9.8784077, -10.2146086
1891011323591167, 0, 0.7100448, 0.9460643, -1.0127778, 0.9701326, 10.1078806, -11.7212256
1891011333553167, 0, 0.5332131, 0.8872933, -0.7170615, 2.1595592, 10.7849226, -9.8954723
1891011343515167, 0, 0.5119168, 1.0034090, -0.7639760, 3.7558397, 11.9626735, -8.2444057
1891011353477167, 0, 0.5523002, 1.0297927, -0.9213738, 4.2375380, 12.9536128, -8.0787003
1891011363440167, 0, 0.5604268, 1.1456815, -1.0334370, 3.7860768, 13.2598759, -8.9430029
1891011373402167, 0, 0.2020213, 1.3055146, -1.0455922, 2.7196944, 13.2055389, -13.8267471
1891011383364167, 0, -0.2181049, 0.7944627, -0.9752173, 2.5279431, 12.1937929, -15.3192934
1891011393326167, 0, -0.1648955, 0.7327150, -0.9162920, 3.1983989, 10.7091801, -9.6180991
1891011403288167, 0, 0.0453651, 1.0539098, -0.9141095, 2.7238857, 10.8287814, -7.1420979
1891011413251167, 0, 0.1641245, 0.9155862, -0.8919896, 1.4988332, 10.9039252, -7.5871225
1891011423213167, 0, 0.3081544, 0.5624050, -0.8783776, 0.6503975, 10.4903352, -6.7647327
1891011433175167, 0, 0.5759328, 0.2807923, -0.8324839, -0.2499802, 10.7698041, -5.0165181
1891011443137167, 0, 0.8267863, -0.0813713, -0.7042897, -1.5682887, 10.9467361, -5.1804272
1891011453099167, 0, 0.8476530, -0.5270255, -0.5772346, -2.0793260, 11.0961255, -8.1453117
1891011463062167, 0, 0.7632731, -0.7772060, -0.4995203, -1.6163388, 10.8379124, -8.1884221
1891011473024167, 0, 0.5876886, -0.5855008, -0.4493520, -1.2094849, 10.3156485, -7.4678206
1891011482986167, 0, 0.3806467, -0.3232960, -0.3919396, -1.1671230, 9.9517552, -7.3748639
1891011492948167, 0, 0.1646073, -0.1467109, -0.4067379, -1.3986914, 10.0818347, -7.7680962
1891011502910167, 0, -0.0316948, -0.0758229, -0.4962593, -1.9785855, 10.5750591, -8.0324464
1891011512873167, 0, -0.1815703, -0.0096915, -0.5406752, -3.2543825, 10.6871759, -7.8179425
1891011522835167, 0, -0.3076646, 0.1638020, -0.5427948, -4.6451404, 10.5433250, -7.1389545
1891011532797167, 0, -0.4368788, 0.4136233, -0.5185228, -5.8426501, 10.5985602, -6.3246478
1891011542759167, 0, -0.6338518, 0.5140055, -0.4219020, -7.0855156, 10.5172792, -6.3339285
1891011552721167, 0, -0.8124937, 0.5092062, -0.2440409, -7.8162959, 9.9935184, -6.4774800
1891011562684167, 0, -0.8363607, 0.5907483, -0.0154847, -7.6996884, 9.5052338, -5.3271222
1891011572646167, 0, -0.6710836, 0.6305798, 0.2134710, -6.5773224, 8.9593190, -3.8116736
1891011582608167, 0, -0.3946967, 0.5725429, 0.3578881, -4.4855722, 8.8398674, -2.9554541
1891011592570167, 0, -0.0688595, 0.5082105, 0.3739299, -2.2369482, 8.8991441, -2.1900957
1891011602532167, 0, 0.2278643, 0.4689185, 0.3077474, -0.5725594, 8.3092209, -1.6033159
1891011612495167, 0, 0.4601287, 0.4600704, 0.2603045, 0.1098715, 7.5095837, -1.5688875
1891011622457167, 0, 0.6568894, 0.4491704, 0.2841691, -0.1853146, 6.2752505, -1.4009367
1891011632419167, 0, 0.8048552, 0.4415657, 0.3425598, -0.7262897, 5.0470546, -1.4102174
1891011642381167, 0, 0.8894042, 0.4194452, 0.3786930, -1.0196796, 4.1347018, -1.7920734
1891011652343167, 0, 0.8955063, 0.3459579, 0.3963396, -0.9491762, 3.3241374, -2.2123993
1891011662306167, 0, 0.8264455, 0.2728558, 0.3699453, -0.5114864, 2.9373418, -2.5755441
1891011672268167, 0, 0.7398469, 0.2484119, 0.2906848, -0.0299377, 2.7164012, -2.7934909
1891011682230167, 0, 0.6524894, 0.2401974, 0.2086563, 0.1568738, 2.4797433, -2.8948302
1891011692192167, 0, 0.4930656, 0.3219088, 0.1378189, 0.2201921, 2.2851480, -3.1031969
1891011702154167, 0, 0.2684586, 0.5469664, 0.0707418, -0.0257465, 1.9808308, -3.3495845
1891011712117167, 0, 0.0132215, 0.9370273, -0.0045330, -0.3674858, 1.8121317, -3.4028737
1891011722079167, 0, -0.2245316, 1.2358830, -0.0550731, -0.8183482, 1.8458116, -3.7184175
1891011732041167, 0, -0.4176657, 1.2851702, -0.0534667, -1.1894266, 1.9294876, -4.3393263
1891011742003167, 0, -0.5169529, 1.1454000, -0.0220848, -0.9541159, 1.9396664, -4.4764412
1891011751965167, 0, -0.4988804, 0.8672741, -0.0392422, -0.1206491, 2.3385869, -4.6190945
1891011761927167, 0, -0.3309127, 0.4582086, -0.1725792, 1.0237212, 3.3916470, -4.6973817
1891011771890167, 0, -0.1185714, 0.2053867, -0.3595273, 1.7661772, 4.3920168, -4.4442581
1891011781852167, 0, -0.0757054, 0.1740267, -0.4719191, 1.6757652, 4.6767247, -4.8002179
1891011791814167, 0, -0.2020338, 0.2913980, -0.4135093, 0.5965096, 4.5671526, -5.6100339
1891011801776167, 0, -0.3071376, 0.4075624, -0.2221761, -0.9785152, 4.4607239, -5.6776932
1891011811739167, 0, -0.2900438, 0.2578765, -0.0381421, -1.5061679, 4.6872029, -5.6676640
1891011821701167, 0, -0.1498843, -0.2203931, 0.0046635, -0.5502557, 5.4025653, -6.2545935
1891011831663167, 0, 0.1410160, -0.7491107, -0.0671207, 0.2204915, 7.2193373, -6.8838849
1891011841625167, 0, 0.4527302, -0.9039179, -0.1001314, 0.1986369, 8.3032333, -6.5907944
1891011851587167, 0, 0.5919980, -0.6997099, 0.0433030, -0.9648935, 8.2252455, -6.4192511
1891011861550167, 0, 0.5290636, -0.4049076, 0.2696024, -1.9456540, 8.2316821, -6.9430119
1891011871512167, 0, 0.3210475, -0.1399962, 0.4321509, -1.9769389, 8.9721922, -7.6453514
1891011881474167, 0, 0.0464104, 0.0777582, 0.4949160, -1.7271085, 10.0203127, -8.4595084
1891011891436167, 0, -0.1772699, 0.2534347, 0.4789277, -1.4028827, 10.8039331, -8.7225114
1891011901398167, 0, -0.2504604, 0.3748468, 0.4545241, -1.0166858, 10.9931396, -8.0706171
1891011911360167, 0, -0.0892857, 0.3973570, 0.4431157, -0.9559122, 11.1149863, -7.0781808
1891011921323167, 0, 0.2518794, 0.2335451, 0.4403276, -1.0675800, 11.4972913, -6.4774800
1891011931285167, 0, 0.3508590, -0.1138637, 0.4477676, -0.9268726, 12.0629649, -9.1346045
1891011941247167, 0, 0.0282703, -0.2328719, 0.4445327, 0.5590874, 12.6277405, -14.2165366
1891011951209167, 0, -0.1765854, 0.0252742, 0.4712634, 2.6638605, 11.8896254, -10.6442152
1891011961172167, 0, -0.3211434, 0.2341984, 0.3217405, 3.7094362, 12.1264330, -9.5154126
1891011971134167, 0, -0.3158456, 0.0523865, 0.1553776, 3.8799316, 12.5627756, -10.9660460
1891011981096167, 0, -0.1186926, -0.2317920, 0.0406944, 3.2775842, 11.9878212, -10.3777693
1891011991058167, 0, 0.1954571, -0.4388660, -0.0334179, 2.6732909, 11.3482013, -9.3155782
1891012001020167, 0, 0.5002338, -0.5333965, -0.1025786, 2.0920496, 10.8467441, -8.4822610
1891012010983167, 0, 0.7388536, -0.4937815, -0.1705608, 1.6968713, 10.4993166, -7.2422397
1891012020945167, 0, 0.8547061, -0.3254564, -0.2602649, 1.5985258, 10.5452710, -7.2952295
1891012030907167, 0, 0.8729892, -0.0234659, -0.3523165, 1.7187259, 10.1985919, -8.1493533
1891012040869167, 0, 0.8089983, 0.4193134, -0.3885120, 2.1257295, 9.3853331, -8.3283810
1891012050831167, 0, 0.5315600, 0.7399406, -0.4129141, 3.0181737, 9.3233620, -9.8635886
1891012060794167, 0, 0.0640466, 0.7666453, -0.4515323, 4.1878413, 9.5886104, -11.2065958
1891012070756167, 0, -0.4689736, 0.4964356, -0.4074408, 4.4912604, 9.7377003, -11.4808255
1891012080718167, 0, -0.8383564, 0.2562281, -0.3138306, 4.0558159, 9.1157437, -10.7742947
1891012090680167, 0, -0.9150975, 0.2461973, -0.1999469, 3.5546581, 8.0754071, -8.6087480
1891012100642167, 0, -0.8137811, 0.4149120, 0.0000442, 2.8222311, 7.3329510, -6.8138306
1891012110605167, 0, -0.6320959, 0.7734424, 0.3139702, 2.0407063, 6.9772906, -5.7745418
1891012120567167, 0, -0.4518732, 1.0026170, 0.6595723, 1.5365547, 6.7960176, -5.0093330
1891012130529042, 0, -0.4597314, 0.6970787, 0.8810104, 1.4374608, 6.4566733, -5.5169275
1891012140491042, 0, -0.5328184, 0.1139455, 0.9089483, 1.5732285, 6.2806393, -5.8730370
1891012150453042, 0, -0.4535670, -0.3203208, 0.7987049, 2.1025278, 6.5247816, -4.6771738
1891012160416042, 0, -0.1409664, -0.5432199, 0.6615223, 2.6625133, 6.5930397, -3.2427068
1891012170378042, 0, 0.2770385, -0.7185935, 0.5340208, 2.5572821, 6.2272005, -1.9592757
1891012180340042, 0, 0.6403043, -0.8753983, 0.4102027, 2.2754182, 5.7937019, -1.8615289
1891012190302042, 0, 0.8295201, -0.9381397, 0.2461437, 1.6676820, 5.3262241, -2.3346950
1891012200264042, 0, 0.8176005, -0.8729448, 0.1104570, 0.9621991, 4.7469287, -3.2043864
1891012210227042, 0, 0.6397965, -0.7029832, 0.1041360, 0.3674858, 4.2766068, -3.9478903
1891012220189042, 0, 0.3268908, -0.5462250, 0.1806593, -0.0932561, 3.9573207, -4.7502219
1891012230151042, 0, -0.0476248, -0.3183918, 0.1878445, 0.0959505, 3.1120285, -5.2471884
1891012240113042, 0, -0.4055845, -0.0588537, 0.1226559, 0.5240602, 2.2191353, -5.2334171
1891012250075042, 0, -0.6890884, 0.0552670, 0.0653907, 0.6905141, 1.8318906, -5.1281859
1891012260038042, 0, -0.8931217, 0.0535855, -0.0017907, 0.7710466, 1.6587007, -5.0260982
1891012270000042, 0, -0.9834119, -0.0424396, -0.0802320, 0.9186397, 1.5756235, -5.0055908
1891012279962042, 0, -0.9216537, -0.2342098, -0.1914120, 1.1439212, 1.6122972, -4.4415637
1891012289924042, 0, -0.7577506, -0.3858614, -0.3420188, 1.3492941, 1.7760567, -3.8944514
1891012299886042, 0, -0.5653297, -0.4709430, -0.4641136, 1.3618680, 1.9627185, -3.8040395
1891012309849042, 0, -0.4243745, -0.5299240, -0.5138615, 1.0758128, 2.3812482, -3.9453456
1891012319811042, 0, -0.3751494, -0.4929588, -0.5077676, 0.9126521, 3.0132339, -4.4068359
1891012329773042, 0, -0.4072194, -0.4105239, -0.4716458, 1.0579999, 3.5625916, -4.8470705
1891012339735042, 0, -0.5033603, -0.3293185, -0.4535984, 1.2033476, 4.1843985, -5.5040543
1891012349697042, 0, -0.5865173, -0.2542911, -0.4900866, 1.5173946, 4.7918353, -5.9779688
1891012359660042, 0, -0.5700153, -0.1270144, -0.5391681, 1.7622853, 5.1644106, -5.5184244
1891012369622042, 0, -0.4435593, 0.0262284, -0.5822040, 1.5950830, 5.5471646, -5.0783395
1891012379584042, 0, -0.2224104, 0.1411907, -0.5878779, 1.1737093, 5.8643550, -4.9264055
1891012389546042, 0, 0.0605286, 0.1461751, -0.5329158, 0.6991960, 6.3482986, -4.9361353
1891012399508042, 0, 0.3111337, 0.0612868, -0.4464987, 0.5161267, 7.0650082, -5.3295172
1891012409471042, 0, 0.4353808, -0.0368819, -0.3924855, 0.7801776, 7.9016185, -6.9470535
1891012419433042, 0, 0.4270536, -0.0993021, -0.3523663, 1.2169693, 8.4687891, -8.0134360
1891012429395042, 0, 0.3340246, -0.1624877, -0.2992954, 1.3662090, 8.8726492, -8.1309416
1891012439357042, 0, 0.1967445, -0.1367799, -0.2830863, 1.3621674, 9.5276871, -8.2384181
1891012449319042, 0, -0.0413389, -0.0126585, -0.3161630, 1.5558646, 10.0388741, -8.9180049
1891012459282042, 0, -0.3451664, 0.0966253, -0.3280231, 1.7545015, 10.2243384, -10.0730031
1891012469244042, 0, -0.5378318, 0.1804220, -0.3131057, 1.7076489, 10.1225500, -9.4405682
1891012479206042, 0, -0.5548675, 0.2029813, -0.3471332, 1.6455281, 10.3794159, -8.1189665
1891012489168042, 0, -0.4154555, 0.1855627, -0.4465823, 1.5097604, 10.9043742, -7.0618648
1891012499130042, 0, -0.2103013, 0.1838060, -0.5526062, 0.9342073, 11.1473190, -6.4155089
1891012509093042, 0, -0.2634167, 0.0873165, -0.6429366, 0.1788780, 11.7746645, -9.8204782
1891012519055042, 0, -0.5912250, -0.0994741, -0.6306120, 0.2163002, 12.7340195, -14.3207199
1891012529017042, 0, -0.7805110, -0.0869815, -0.5122894, 0.7030879, 12.0218005, -11.8087935
1891012538979042, 0, -0.7499906, -0.1250905, -0.4279442, 0.7330257, 12.1827159, -10.1203047
1891012548941042, 0, -0.4944843, -0.3571286, -0.4058918, 0.6764433, 12.5371788, -8.4301694
1891012558904042, 0, -0.0823995, -0.4584562, -0.4239366, 0.4260141, 12.3289618, -6.0736198
1891012568866042, 0, 0.3561435, -0.3409198, -0.4176689, -0.6312373, 12.1869072, -4.4494972
1891012578828042, 0, 0.6756578, -0.1572842, -0.3722894, -2.1368065, 12.1168529, -4.1962239
1891012588790042, 0, 0.8205279, -0.1059664, -0.3021625, -3.6658768, 12.1201460, -5.3256253
1891012598752042, 0, 0.8623563, -0.1624108, -0.2166913, -4.7609995, 11.9950063, -6.2505519
1891012608715042, 0, 0.7917405, -0.2848229, -0.1332545, -5.2307227, 11.8269058, -7.1548215
1891012618677042, 0, 0.5946069, -0.3816904, -0.0772434, -5.0018486, 11.6585060, -7.9177849
1891012628639042, 0, 0.3002557, -0.2287112, -0.0172139, -4.5057802, 11.0673853, -7.9537102
1891012638601042, 0, -0.0336352, 0.0091237, 0.0972797, -3.9932460, 10.2643053, -7.6546321
1891012648563042, 0, -0.3407198, 0.2054416, 0.2066328, -3.3088692, 10.0041463, -7.5805362
1891012658526042, 0, -0.5377561, 0.1470113, 0.2700754, -3.0855336, 9.7620996, -7.4290512
1891012668488042, 0, -0.5990024, -0.0249472, 0.3070582, -3.2317795, 9.3522519, -6.6969237
1891012678450042, 0, -0.6427430, -0.0197159, 0.3461550, -3.3022829, 9.3748549, -5.6407201
1891012688412042, 0, -0.7277964, 0.0036911, 0.4180124, -3.1400203, 9.4145224, -5.4634886
1891012698374042, 0, -0.7996485, -0.0241586, 0.5253919, -2.7913953, 9.2232202, -5.4076547
1891012708337042, 0, -0.8232417, -0.0991117, 0.5821841, -2.0466939, 9.1209828, -4.9299980
1891012718299042, 0, -0.7628774, -0.1834162, 0.5258433, -1.2249028, 9.0873029, -4.2429268
1891012728261042, 0, -0.6037943, -0.2792119, 0.4366234, -0.6682104, 8.8115762, -3.3858092
1891012738223042, 0, -0.3697240, -0.2435013, 0.3923877, -0.6821315, 8.3536784, -2.4798930
1891012748185042, 0, -0.1075275, -0.1571587, 0.3891041, -0.7710466, 7.6465489, -1.7574953
1891012758148042, 0, 0.1456086, 0.0475222, 0.4132091, -1.0629396, 6.6895889, -1.7060023
1891012768110042, 0, 0.3350339, 0.3208739, 0.4090930, -1.1258089, 6.0360480, -1.3825250
1891012778072042, 0, 0.4257891, 0.4796718, 0.3845825, -0.8066725, 5.4021162, -2.0532802
1891012788034042, 0, 0.4376168, 0.6607457, 0.3210342, -0.2339635, 4.9611333, -2.5857230
1891012797996042, 0, 0.4226895, 0.9578908, 0.2622215, 0.1737886, 4.5885580, -2.5385710
1891012807959042, 0, 0.4082786, 1.1595001, 0.2321038, 0.3272195, 4.1644899, -2.6436525
1891012817921042, 0, 0.4274839, 1.0716739, 0.1802499, 0.4845424, 4.0603065, -3.2635135
1891012827883042, 0, 0.5036616, 0.8066411, 0.0428926, 0.8906479, 4.0436911, -3.6048038
1891012837845042, 0, 0.6224758, 0.6262242, -0.1359341, 1.2037967, 3.8101767, -3.4572107
1891012847807042, 0, 0.7058879, 0.5773898, -0.2847018, 1.2331357, 3.6347415, -3.3356635
1891012857770042, 0, 0.6674569, 0.5739240, -0.3612376, 0.9788145, 3.4703833, -3.7681142
1891012867732042, 0, 0.5038298, 0.5841979, -0.3926882, 0.7241940, 3.3823663, -4.4718008
1891012877694042, 0, 0.2871905, 0.7049891, -0.4151988, 0.6424640, 3.3715887, -4.7415399
1891012887656042, 0, 0.0465467, 0.7731926, -0.4263106, 0.5899232, 3.4410443, -4.7800099
1891012897618042, 0, -0.1868655, 0.7112361, -0.4548269, 0.6027965, 3.7755986, -5.2702405
1891012907581042, 0, -0.3765643, 0.5377391, -0.5070429, 0.7358698, 4.0421942, -5.5321957
1891012917543042, 0, -0.5042866, 0.2720760, -0.5711045, 0.9865984, 4.1694296, -5.7981926
1891012927505042, 0, -0.6029857, 0.0469467, -0.6456581, 1.2811858, 4.4854225, -5.8348663
1891012937467042, 0, -0.7583599, -0.0784080, -0.7668660, 1.5980768, 4.7138475, -5.8321719
1891012947429042, 0, -1.0352956, -0.1998417, -0.9202816, 1.9728973, 4.7976732, -6.4577211
1891012957392042, 0, -1.3285531, -0.4011847, -0.9933285, 2.0143611, 5.3925362, -7.0461475
1891012967354042, 0, -1.4424578, -0.5178636, -0.9277111, 2.0743863, 5.6353313, -6.4012885
1891012977316042, 0, -1.3264457, -0.4681630, -0.8224276, 1.6881894, 5.6182668, -5.2690430
1891012987278042, 0, -1.0701537, -0.3138940, -0.7313306, 0.6893166, 6.6598009, -4.8581474
1891012997240042, 0, -0.7524085, -0.1482084, -0.6368835, 0.0700543, 7.6071808, -5.2040781
1891013007203042, 0, -0.4282954, -0.0604977, -0.5392707, -0.2595602, 8.2189586, -5.2206935
1891013017165042, 0, -0.1323277, -0.0761392, -0.5138713, -0.3694318, 8.9024373, -5.2620076
1891013027127042, 0, 0.1026462, -0.0995255, -0.5491196, -0.3438350, 9.7061160, -5.5250107
1891013037089042, 0, 0.2573223, -0.1035581, -0.5895855, -0.7598199, 10.3446881, -6.3598247
1891013047052042, 0, 0.3170778, -0.1818854, -0.6032614, -1.3933026, 10.7759413, -7.3964191
1891013057014042, 0, 0.3546753, -0.3614258, -0.5917661, -2.2752686, 11.2826376, -7.6423576
1891013066976042, 0, 0.4285242, -0.4327163, -0.5636114, -3.2774345, 11.5474370, -6.9087332
1891013076938042, 0, 0.5582683, -0.3209495, -0.4911743, -4.2605901, 11.5653996, -5.9685384
1891013086900042, 0, 0.7297309, -0.1815786, -0.3497234, -5.1563274, 11.6016243, -5.6640715
1891013096862042, 0, 0.9076141, -0.0976765, -0.2017302, -5.5456677, 11.6896413, -5.4838463
1891013106825042, 0, 0.9306560, 0.0623182, -0.1704407, -4.8349457, 12.0429066, -7.4905733
1891013116787042, 0, 0.6657961, 0.2869987, -0.2824442, -2.8389963, 13.2773895, -12.1451440
1891013126749042, 0, 0.4172342, 0.1873638, -0.2929088, -1.3404625, 13.1401250, -8.7769981
1891013136711500, 0, 0.1986209, 0.0784320, -0.2997532, -1.2189153, 12.6632167, -7.6913058
1891013146674500, 0, 0.0696161, 0.0156277, -0.3040329, -1.8808388, 12.8142526, -9.0901469
1891013156636500, 0, 0.0843032, 0.0177391, -0.1692865, -3.0243109, 12.0798798, -7.9963715
1891013166598500, 0, 0.1774541, 0.0856606, 0.0623670, -3.9176532, 10.8760831, -6.8299969
1891013176560500, 0, 0.3391504, 0.1536218, 0.2887687, -4.1595502, 10.2951411, -6.2328886
1891013186522500, 0, 0.6065520, 0.0769166, 0.4950809, -3.8833745, 10.0412691, -5.2494337
1891013196485500, 0, 1.0006114, -0.1341874, 0.6339426, -3.4765205, 9.7498251, -4.7638435
1891013206447500, 0, 1.4435757, -0.2214967, 0.6745787, -2.8693831, 9.8308067, -5.4564532
1891013216409500, 0, 1.7888991, -0.0514853, 0.7219347, -1.9742445, 9.8284117, -5.9640477
1891013226371500, 0, 1.9045058, 0.3130405, 0.8444269, -0.9126521, 9.5857663, -6.8082921
1891013236333500, 0, 1.7222098, 0.6362819, 1.0277935, 0.3439847, 9.6854590, -7.9469742
1891013246296500, 0, 1.2393686, 0.8835122, 1.1700380, 1.3837225, 10.0318387, -9.0289243
1891013256258500, 0, 0.4993235, 1.0072105, 1.2318548, 1.9175125, 10.2391576, -9.9044536
1891013266220500, 0, -0.4146206, 0.9170289, 1.2441999, 2.2222787, 9.6905484, -10.4843477
1891013276182500, 0, -1.3280362, 0.7396197, 1.2113066, 2.1269270, 8.7091891, -10.4448299
1891013286144500, 0, -2.0266442, 0.6185639, 1.1619390, 1.7530046, 7.9966708, -9.6580659
1891013296107500, 0, -2.3774214, 0.5674317, 1.1101546, 1.4843134, 7.8773689, -8.1179187
1891013306069500, 0, -2.3691490, 0.4818481, 1.1028744, 1.4919475, 8.0885797, -6.2424687
1891013316031500, 0, -2.0345917, 0.3724500, 1.1348954, 1.8380278, 8.1444136, -4.3888733
1891013325993500, 0, -1.4371296, 0.2241242, 1.1409304, 2.3143373, 8.1033989, -2.4921675
1891013335955500, 0, -0.6147521, 0.1142501, 0.9817315, 3.0891261, 8.3863106, -0.9249266
1891013345918500, 0, 0.3268503, 0.1806806, 0.6246926, 4.1112007, 8.6193759, 0.7223978
1891013355880500, 0, 1.1617185, 0.3075916, 0.2285554, 4.6023294, 8.3655038, 1.0770103
1891013365842500, 0, 1.7000291, 0.3309516, -0.1149218, 4.3945615, 7.8869490, -0.1228944
1891013375804500, 0, 1.8774314, 0.1635034, -0.3484403, 3.9761815, 7.5107812, -2.1673430
1891013385766500, 0, 1.7889798, -0.0788852, -0.4407097, 3.5301091, 7.1287756, -3.5739679
1891013395729500, 0, 1.5684592, -0.2504866, -0.4433015, 3.2301329, 6.2019031, -4.3167233
1891013405691500, 0, 1.3251301, -0.3913584, -0.4377845, 2.8238777, 5.2883528, -4.5596681
1891013415653500, 0, 1.0922875, -0.5362637, -0.4548056, 2.5012985, 4.5424539, -4.6095145
1891013425615500, 0, 0.8994305, -0.7002657, -0.5305502, 2.3447241, 3.8713994, -4.8358438
1891013435577500, 0, 0.7948540, -0.8442996, -0.6049474, 1.9845731, 3.4093103, -4.6466373
1891013445540500, 0, 0.7498266, -0.9445891, -0.6238806, 1.4456937, 2.9344977, -4.2534050
1891013455502500, 0, 0.7042442, -0.9193525, -0.5713429, 0.8701405, 2.2543121, -4.0091130
1891013465464500, 0, 0.6348654, -0.7400981, -0.4656684, 0.3710783, 1.4495856, -3.8483473
1891013475426500, 0, 0.5594308, -0.5419237, -0.3697898, -0.0136217, 1.0355466, -3.6098932
1891013485389500, 0, 0.4937900, -0.4563004, -0.3111840, -0.2061214, 1.0557545, -3.8440063
1891013495351500, 0, 0.4094629, -0.4795434, -0.2996389, -0.1658551, 1.3862672, -4.4023453
1891013505313500, 0, 0.2624524, -0.4670977, -0.2343784, -0.1689986, 1.3406122, -4.9722102
1891013515275500, 0, 0.0903965, -0.5334671, -0.1100176, -0.1531316, 1.1232642, -5.5148318
1891013525237500, 0, -0.0600668, -0.7077697, -0.0554715, 0.0935555, 1.7938696, -6.2532463
1891013535200500, 0, -0.1361336, -0.9049065, -0.1018569, 0.5203180, 2.7434949, -6.6294141
1891013545162500, 0, -0.1695121, -1.0282321, -0.2276875, 0.9978250, 3.4025743, -6.4945445
1891013555124500, 0, -0.2551508, -0.8606652, -0.3890804, 1.1079959, 3.7741017, -6.3508434
1891013565086500, 0, -0.4621546, -0.5276121, -0.4901474, 0.7688013, 3.9838156, -6.4464944
1891013575048500, 0, -0.7446364, -0.1325599, -0.4587476, 0.0826282, 4.2086481, -6.9744466
1891013585011500, 0, -0.9852524, 0.1814707, -0.2978160, -0.5610333, 4.3631268, -7.3804024
1891013594973500, 0, -1.0747280, 0.2078552, -0.1182433, -0.7318282, 4.7345045, -8.1038480
1891013604935500, 0, -0.9968521, -0.0298381, -0.0583355, -0.3109035, 5.7850200, -8.7975055
1891013614897500, 0, -0.8001363, -0.2926098, -0.1021855, 0.5842351, 6.8886749, -8.7009563
1891013624859500, 0, -0.5268787, -0.3267235, -0.1931085, 0.9690848, 7.4170761, -7.6016423
1891013634822500, 0, -0.2703061, -0.1639668, -0.2622188, 0.8548723, 7.7188486, -6.9075357
1891013644784500, 0, -0.1718772, 0.0340110, -0.3130873, 0.5806425, 8.2762894, -8.0171782
1891013654746500, 0, -0.2815566, -0.0109373, -0.3565280, 0.3486250, 8.7832851, -10.0382753
1891013664708500, 0, -0.3919041, -0.1098056, -0.3658573, 0.3028203, 9.1317604, -10.2391576
1891013674670500, 0, -0.3206062, -0.0525490, -0.3267555, -0.0788860, 9.9108902, -8.5726730
1891013684633500, 0, -0.1197775, 0.1542612, -0.3024730, -0.5566924, 10.6223607, -6.9461554
1891013694595500, 0, 0.0423546, 0.3969484, -0.3630983, -0.9791139, 11.1434271, -6.6286656
1891013704557500, 0, -0.0567677, 0.7604358, -0.4423236, -1.4651532, 11.6577576, -9.4514955
1891013714519500, 0, -0.6035503, 0.6374923, -0.3755470, -2.0378622, 12.0909567, -15.4249736
1891013724481500, 0, -0.8775438, 0.3270282, -0.1734104, -2.3703209, 11.3062885, -13.0495633
1891013734444500, 0, -0.6166536, 0.3065906, -0.0019007, -2.2649400, 11.5799194, -7.8709323
1891013744406500, 0, -0.1496872, 0.2795933, 0.0975465, -1.7028589, 11.8538498, -7.1629047
1891013754368500, 0, 0.3298807, 0.0742769, 0.1040849, -0.8114626, 11.2958102, -6.5295717
1891013764330500, 0, 0.8453787, -0.3402332, 0.0131025, -0.1375639, 11.6300652, -5.5862334
1891013774292500, 0, 1.3442580, -0.6555927, -0.1825786, 0.1026865, 12.4235651, -5.1034872
1891013784255500, 0, 1.6657870, -0.5933459, -0.4218175, -0.2472858, 12.5082889, -6.1490630
1891013794217500, 0, 1.7855259, -0.6254181, -0.6093720, -1.2355307, 11.9259998, -7.6440042
1891013804179500, 0, 1.8141330, -0.7812750, -0.7707028, -2.4680676, 11.3312865, -7.1383557
1891013814141500, 0, 1.7161804, -0.6911774, -0.9133204, -3.3480876, 11.0022707, -7.8728783
1891013824103500, 0, 1.5616915, -0.3638230, -0.9759090, -4.3821373, 10.1964963, -8.3851131
1891013834066500, 0, 1.4005604, 0.0036480, -0.9532559, -5.4926779, 9.6421989, -8.0704674
1891013844028500, 0, 1.1466714, 0.3378385, -0.8192586, -6.1299028, 9.4574831, -8.5532135
1891013853990500, 0, 0.7617442, 0.5873578, -0.5851242, -6.3149181, 9.0661967, -9.2756113
1891013863952500, 0, 0.3535762, 0.7458196, -0.3539599, -6.2909679, 8.7491560, -9.6508809
1891013873914500, 0, -0.0356062, 0.5624849, -0.1836953, -6.2903691, 8.6109933, -9.8593973
1891013883877500, 0, -0.3962120, 0.1647591, -0.0914218, -6.1635828, 8.2023431, -10.2866089
1891013893839500, 0, -0.6377794, -0.1868852, -0.0743776, -5.6715559, 7.4622821, -9.9230150
1891013903801500, 0, -0.7577602, -0.5010682, 0.0401709, -5.2039284, 7.0620145, -9.1241263
1891013913763500, 0, -0.6854018, -0.7844533, 0.2660487, -5.1889595, 6.9042426, -7.9855939
1891013923726500, 0, -0.4075281, -0.9210982, 0.4481759, -4.7583051, 6.7681755, -6.1821442
1891013933688500, 0, -0.0024235, -0.9472965, 0.5049306, -3.7597316, 6.6753685, -4.4462041
1891013943650500, 0, 0.4638654, -0.8907337, 0.5182607, -3.2403117, 6.6160918, -3.2841705
1891013953612500, 0, 0.8724822, -0.6538820, 0.5851734, -3.4105078, 5.7796312, -2.5297394
1891013963574500, 0, 1.1505194, -0.2556762, 0.6837472, -3.5995647, 4.8518605, -2.1121078
1891013973537500, 0, 1.2583252, 0.1879318, 0.8095437, -3.5938765, 4.5146118, -2.0939955
1891013983499500, 0, 1.1937071, 0.6015876, 0.9511658, -3.3111145, 4.0881487, -2.5810826
1891013993461500, 0, 1.0216522, 0.8972464, 1.0426047, -2.4041505, 3.6681221, -3.2611185
1891014003423500, 0, 0.8443286, 1.0535300, 1.0668900, -1.4895525, 3.6060013, -3.7601807
1891014013385500, 0, 0.6112943, 1.1645609, 0.9815501, -0.6716533, 3.2433055, -4.0029758
1891014023348500, 0, 0.2669702, 1.2315346, 0.7997683, 0.2137555, 2.3887326, -4.5940965
1891014033310500, 0, -0.1132637, 1.2265310, 0.6053355, 0.5227130, 1.9447559, -5.1424063
1891014043272500, 0, -0.4823901, 1.2165123, 0.4457109, 0.3974236, 1.4504837, -5.4118460
1891014053234500, 0, -0.7558320, 1.2225480, 0.3688217, -0.0422122, 0.7018904, -5.2997292
1891014063196500, 0, -0.8663886, 1.1483260, 0.3548406, -0.4757108, 0.0969983, -4.8621890
1891014073159500, 0, -0.8520116, 0.9227778, 0.3768256, -0.6179150, -0.3390450, -4.6533733
1891014083121500, 0, -0.8067833, 0.6291806, 0.4049781, -0.3577560, -0.4290079, -4.7979726
1891014093083500, 0, -0.7952774, 0.3318043, 0.4356290, 0.2948868, -0.0143701, -5.0207094
1891014103045500, 0, -0.8427579, 0.0860513, 0.4250208, 1.2344829, 0.8134085, -5.2769765
1891014113007500, 0, -0.9634904, -0.0680592, 0.3591499, 2.0222946, 1.8158739, -5.7648120
1891014122970500, 0, -1.1298610, -0.1775332, 0.2874427, 2.1704865, 2.5441095, -6.1743604
1891014132932542, 0, -1.2644100, -0.2523313, 0.2588521, 1.6528629, 3.4305661, -6.2487556
1891014142894542, 0, -1.3735530, -0.2980077, 0.2799382, 0.8982820, 4.4592270, -5.9604552
1891014152856542, 0, -1.5500759, -0.3563283, 0.3222129, 0.4822971, 5.1798285, -6.1956161
1891014162818542, 0, -1.7197647, -0.4363145, 0.3832015, 0.4596941, 5.7928038, -6.3846730
1891014172781542, 0, -1.7765106, -0.5491933, 0.4439276, 0.4725673, 6.5961832, -5.9112076
1891014182743542, 0, -1.7815959, -0.6462975, 0.5205622, 0.3972739, 7.3643857, -5.9694365
1891014192705542, 0, -1.8205497, -0.6740612, 0.6503913, 0.1296304, 7.9429326, -6.9614236
1891014202667542, 0, -1.8237377, -0.6612563, 0.8394417, -0.1249901, 8.3605641, -7.3001692
1891014212629542, 0, -1.7128706, -0.7664932, 1.0782905, -0.4321513, 8.8714517, -6.6503705
1891014222592542, 0, -1.4931612, -0.9817400, 1.2903184, -0.6715036, 9.7231805, -5.9474323
1891014232554542, 0, -1.1830925, -1.0759640, 1.3465080, -0.5051994, 10.8028853, -6.0354492
1891014242516542, 0, -0.8272852, -0.9890472, 1.2834127, -0.2356100, 11.9212097, -6.0062599
1891014252478542, 0, -0.5711170, -0.8822097, 1.2620039, -0.4108955, 12.5162224, -5.7199054
1891014262441542, 0, -0.4784707, -0.8908295, 1.2735462, -0.6944060, 12.5129292, -6.0537112
1891014272403542, 0, -0.3427688, -0.8491281, 1.2759780, -0.7804770, 12.3497685, -5.9116566
1891014282365542, 0, -0.0732225, -0.8303717, 1.2806250, -0.8851094, 12.4669748, -4.7684839
1891014292327542, 0, 0.2088842, -0.9760754, 1.3356757, -0.8752299, 12.9316086, -4.6402007
1891014302289542, 0, 0.2093964, -1.1276189, 1.3905230, -0.2118095, 13.8011504, -8.0029578
1891014312252542, 0, 0.0094044, -1.2742374, 1.4651802, 1.4174025, 14.4136766, -11.2529993
1891014322214542, 0, -0.0302269, -1.2848759, 1.5080943, 3.1124776, 12.9024193, -6.1933708
1891014332176542, 0, -0.1027434, -1.1243105, 1.3765837, 4.5914021, 12.4132365, -6.4367647
1891014342138542, 0, -0.1191988, -1.1864319, 1.1981229, 4.9536488, 12.6891129, -7.5817337
1891014352100542, 0, -0.0378323, -1.3700382, 1.0688578, 4.5804749, 11.9069893, -6.8885252
1891014362063542, 0, 0.1024843, -1.6153054, 0.9953096, 4.0245309, 11.5812666, -7.0320767
1891014372025542, 0, 0.3444668, -1.8494027, 0.9546226, 3.5166371, 11.6254248, -6.1602896
1891014381987542, 0, 0.6891859, -1.8956056, 0.8972155, 3.3717384, 11.5204930, -4.4598257
1891014391949542, 0, 0.9648896, -1.7690274, 0.8287430, 3.3456926, 11.6697327, -4.9843350
1891014401911542, 0, 1.0617658, -1.6619569, 0.7952316, 3.1449600, 11.5378569, -6.7551526
1891014411874542, 0, 0.9754546, -1.6239588, 0.8217684, 2.9479697, 10.7717500, -8.7997508
1891014421836542, 0, 0.7747423, -1.5939472, 0.9078612, 3.0334419, 9.9778011, -10.1188078
1891014431798542, 0, 0.5002354, -1.5828996, 0.9938810, 3.4525703, 9.3646761, -10.3099603
1891014441760542, 0, 0.1692130, -1.6182564, 1.0585335, 3.7544925, 9.0976314, -10.4485721
1891014451722542, 0, -0.1926390, -1.6653948, 1.1056327, 3.6212695, 8.8222041, -10.3883972
1891014461685542, 0, -0.5827100, -1.6493820, 1.1215354, 3.3982333, 8.6753595, -10.2012863
1891014471647542, 0, -1.0231047, -1.4788624, 1.1747971, 2.9672795, 8.4481320, -9.8457756
1891014481609542, 0, -1.3990389, -1.2197038, 1.2437530, 2.1489313, 7.6291850, -9.1613988
1891014491571542, 0, -1.5705950, -1.0779139, 1.1691242, 1.5355069, 6.9488498, -7.8279716
1891014501534542, 0, -1.4590956, -1.0652615, 0.9453748, 1.5118561, 6.6620462, -6.1537033
1891014511496542, 0, -1.0848352, -1.1133689, 0.6464914, 1.6913329, 6.5312183, -4.2309517
1891014521458542, 0, -0.4962377, -1.1367497, 0.3182642, 1.5614030, 6.4698459, -2.4304958
1891014531420542, 0, 0.1392120, -1.2258357, 0.1107878, 1.1539503, 6.4641577, -1.2049942
1891014541382542, 0, 0.6352033, -1.3739288, 0.0403631, 0.6722520, 5.9029747, -1.3720468
1891014551345542, 0, 0.9244530, -1.4181112, 0.0260084, 0.3429369, 4.8538065, -2.0857626
1891014561307542, 0, 1.0292587, -1.3180181, -0.0091815, 0.1104703, 3.8019438, -2.6081763
1891014571269542, 0, 0.9873731, -1.1401136, -0.0766492, -0.0981958, 3.2533347, -3.1204111
1891014581231542, 0, 0.8379189, -0.9896890, -0.1709536, -0.1936972, 3.0996043, -3.8776863
1891014591193542, 0, 0.6260186, -0.8504166, -0.2991963, -0.1980382, 3.1949561, -4.5283832
1891014601156542, 0, 0.3606208, -0.7278347, -0.3914660, -0.2734813, 3.0276041, -4.8547046
1891014611118542, 0, 0.0371647, -0.5941206, -0.4423319, -0.4251160, 2.7375073, -5.1257909
1891014621080542, 0, -0.3343125, -0.4967030, -0.4492510, -0.5324428, 2.5617728, -5.5425243
1891014631042542, 0, -0.7117037, -0.4559915, -0.4174617, -0.7195537, 2.2409898, -5.8652531
1891014641004542, 0, -1.0419450, -0.4335964, -0.3581240, -1.0684781, 2.0185524, -5.7297849
1891014650967542, 0, -1.2861451, -0.4105460, -0.3048883, -1.3271402, 1.8417700, -5.3419414
1891014660929542, 0, -1.4470168, -0.3681256, -0.2772260, -1.5257771, 1.7971628, -4.9531998
1891014670891542, 0, -1.5217031, -0.2782843, -0.2641153, -1.7089961, 1.7982106, -4.4542873
1891014680853542, 0, -1.5037498, -0.1469293, -0.2325166, -1.8589842, 1.7480649, -3.8115239
1891014690815542, 0, -1.3856142, 0.0711820, -0.1681997, -1.9540366, 1.7778529, -3.0470636
1891014700778542, 0, -1.1796507, 0.3105291, -0.0839961, -2.0574715, 2.2168900, -2.6348209
1891014710740542, 0, -0.9158536, 0.5468652, 0.0763805, -2.1344115, 2.7890002, -2.6247917
1891014720702542, 0, -0.6258825, 0.7819989, 0.2341182, -2.1363574, 3.2368689, -2.5938062
1891014730664542, 0, -0.3803838, 0.9664257, 0.3353596, -2.0402573, 3.9282811, -2.9207263
1891014740627542, 0, -0.2895373, 1.1108961, 0.4134970, -1.8793419, 4.4704536, -3.9062769
1891014750589542, 0, -0.3993868, 1.2501578, 0.4767325, -1.4280304, 4.8907796, -5.2464400
1891014760551542, 0, -0.5749954, 1.1791058, 0.5203708, -0.6218069, 5.7475978, -6.4794260
1891014770513542, 0, -0.7274622, 1.2060509, 0.5888239, 0.3085085, 6.6521667, -6.9817813
1891014780475542, 0, -0.8467047, 1.3252654, 0.6367083, 1.4606625, 7.4685690, -7.0437524
1891014790438542, 0, -0.8954014, 1.3543199, 0.5763312, 2.7180478, 8.6807483, -7.0145631
1891014800400542, 0, -0.8782368, 1.3461590, 0.3774365, 3.6676730, 10.0691112, -6.7431775
1891014810362542, 0, -0.8199394, 1.3316218, 0.0933358, 4.1647893, 11.0205327, -6.7573979
1891014820324542, 0, -0.7873412, 1.2792222, -0.1753929, 4.1837997, 11.7751135, -7.3386392
1891014830286542, 0, -0.7806566, 1.0447650, -0.3129177, 3.7868253, 12.2002295, -7.5504488
1891014840249542, 0, -0.7339025, 0.7274243, -0.2866874, 3.3250356, 12.4053030, -7.3798036
1891014850211542, 0, -0.5914050, 0.4738232, -0.1845392, 2.8469298, 12.8310178, -6.7267117
1891014860173542, 0, -0.3451507, 0.3063735, -0.1280389, 2.3658302, 13.6938235, -5.5914725
1891014870135542, 0, 0.0248678, 0.2017795, -0.1441987, 2.0160077, 14.7949338, -4.3508524
1891014880097542, 0, 0.4619658, 0.2260728, -0.2147850, 1.7512083, 15.8225468, -4.4006987
1891014890060542, 0, 0.6625953, 0.4007570, -0.3561530, 1.6923807, 17.1651050, -8.2385678
1891014900022542, 0, 0.5107360, 0.0148751, -0.5048312, 1.9914587, 17.3870934, -9.2783057
1891014909984542, 0, 0.4219211, -0.2180580, -0.6852077, 2.3963667, 15.1754425, -6.4505360
1891014919946542, 0, 0.4939815, -0.0387876, -0.8961756, 2.3565495, 14.6307253, -5.7254439
1891014929909542, 0, 0.6731374, 0.2329829, -1.0344317, 1.7971628, 14.9293542, -4.8023135
1891014939871542, 0, 0.9153128, 0.5368616, -1.1217983, 1.0949730, 14.1011266, -3.4426909
1891014949833542, 0, 1.2242959, 0.8849125, -1.1722032, 0.1634601, 13.2794852, -2.2924828
1891014959795542, 0, 1.4512316, 1.3132559, -1.1637160, -1.0118958, 13.0211224, -3.7681142
1891014969757542, 0, 1.5265257, 1.2369542, -1.0876102, -1.9243982, 13.2270941, -4.7108537
1891014979720542, 0, 1.5810772, 1.0081418, -1.0364722, -2.2767654, 12.8699368, -4.4372227
1891014989682542, 0, 1.5829209, 0.7618430, -1.0443815, -2.1380040, 13.0896799, -5.9330621
1891014999644542, 0, 1.5375297, 0.5438796, -1.0679755, -1.8829344, 13.5237772, -6.1676244
1891015009606542, 0, 1.4355801, 0.4305716, -1.0554144, -1.6357983, 13.4505794, -6.4403572
1891015019568542, 0, 1.3006284, 0.4478302, -0.9883505, -1.4563216, 12.7953918, -6.4572720
1891015029531542, 0, 1.1541508, 0.5907936, -0.9121563, -1.3801300, 12.1090691, -6.3197081
1891015039493542, 0, 0.9953503, 0.7521513, -0.8901371, -1.4332695, 11.7496664, -6.1629840
1891015049455542, 0, 0.8530289, 0.8084531, -0.9023988, -1.8012044, 11.2178224, -6.1468176
1891015059417542, 0, 0.7518711, 0.7428457, -0.8827971, -2.6289830, 10.6964566, -6.0990669
1891015069379542, 0, 0.6739598, 0.6272677, -0.7842757, -3.5357973, 10.2860101, -5.9426422
1891015079342542, 0, 0.5900806, 0.5316809, -0.5976634, -4.1520657, 9.4528427, -5.4024156
1891015089304542, 0, 0.4708519, 0.4441260, -0.3540470, -4.3282494, 8.6047064, -4.8862889
1891015099266542, 0, 0.3207407, 0.3521791, -0.0687745, -4.1065604, 7.8580591, -4.7084587
1891015109228542, 0, 0.2052349, 0.3210294, 0.2211351, -3.6106416, 7.0442015, -4.2373883
1891015119190542, 0, 0.1820020, 0.3607699, 0.4902983, -2.9759615, 6.2197160, -3.3196468
1891015129153542, 0, 0.2540448, 0.4311519, 0.7075228, -2.3041585, 5.5259088, -2.5744963
1891015139115250, 0, 0.4043262, 0.5126830, 0.8662075, -1.6925304, 4.8987131, -2.1519250
1891015149077250, 0, 0.6006176, 0.5350142, 0.9691187, -1.0520123, 4.2552013, -1.9851718
1891015159039250, 0, 0.8074757, 0.5030967, 1.0264339, -0.4558022, 3.7630247, -2.1094135
1891015169002250, 0, 0.9684782, 0.4587569, 1.0326008, 0.1637595, 3.3795222, -2.3843916
1891015178964250, 0, 1.0403029, 0.4348921, 0.9984630, 0.8649014, 2.8618987, -2.7870543
1891015188926250, 0, 0.9883393, 0.4512220, 0.9306834, 1.5313156, 2.2094055, -3.3199461
1891015198888250, 0, 0.8221090, 0.5288793, 0.8305704, 2.0393591, 1.7310004, -3.8203555
1891015208850250, 0, 0.5561751, 0.6262772, 0.6946288, 2.2908362, 1.3424084, -4.2189766
1891015218813250, 0, 0.2404816, 0.6541994, 0.5157499, 2.3761588, 0.9894424, -4.6933401
1891015228775250, 0, -0.0893403, 0.5785486, 0.3191668, 2.5131239, 0.5460645, -5.1683025
1891015238737250, 0, -0.3955202, 0.4295756, 0.0902234, 2.7604097, 0.2905458, -5.5561459
1891015248699250, 0, -0.6282123, 0.2038679, -0.1351618, 2.9195288, 0.3996689, -5.8369620
1891015258661250, 0, -0.7395092, -0.0178831, -0.3199242, 2.9060568, 0.6628217, -5.6157220
1891015268624250, 0, -0.7191533, -0.1504236, -0.4864541, 2.8674371, 0.7360194, -5.1130673
1891015278586250, 0, -0.6299007, -0.2521572, -0.6104255, 2.7225385, 0.8672964, -4.9063472
1891015288548250, 0, -0.5499590, -0.3117688, -0.7087367, 2.4614813, 1.1600876, -5.0115784
1891015298510250, 0, -0.5180474, -0.2748425, -0.7779762, 2.0829185, 1.6519647, -5.1599199
1891015308473250, 0, -0.5580766, -0.2376528, -0.7844389, 1.4952406, 2.2677841, -5.3875964
1891015318435250, 0, -0.6629013, -0.1824374, -0.7018636, 0.7860155, 2.9240195, -5.8195981
1891015328397250, 0, -0.8283867, -0.1367456, -0.5617632, 0.2321672, 3.5066080, -6.2730052
1891015338359250, 0, -0.9473471, -0.2122838, -0.4394035, 0.0217049, 4.0719823, -6.1382854
1891015348321250, 0, -1.0197366, -0.1882160, -0.3965037, 0.2291734, 4.7882428, -6.1281065
1891015358284250, 0, -1.0716555, -0.0324322, -0.4059805, 0.5810916, 5.6574852, -6.4719415
1891015368246250, 0, -1.0961571, 0.1063914, -0.4569398, 0.5845345, 6.5601082, -6.4749353
1891015378208250, 0, -1.0806447, 0.1764227, -0.5311360, 0.2005829, 7.5940082, -6.1740610
1891015388170250, 0, -1.0347861, 0.1868769, -0.6000246, -0.5662724, 8.7991521, -6.3360242
1891015398132250, 0, -0.9629593, 0.1460965, -0.6448680, -1.5956818, 10.0382753, -6.7195267
1891015408095250, 0, -0.9130280, 0.1497975, -0.6530542, -2.5114774, 11.2065958, -6.8223628
1891015418057250, 0, -0.8612016, 0.3143470, -0.5761219, -3.1325359, 12.1352646, -6.4463448
1891015428019250, 0, -0.7879127, 0.6368856, -0.3772892, -3.4420921, 12.6934538, -5.4202286
1891015437981250, 0, -0.7256792, 0.9697558, -0.0930508, -3.5720219, 13.1887738, -5.0919612
1891015447944250, 0, -0.6462070, 1.1047029, 0.1565987, -3.2380664, 13.8737494, -5.2148557
1891015457906250, 0, -0.4845808, 1.0069973, 0.3277169, -2.4177722, 14.6320724, -5.4045113
1891015467868250, 0, -0.2222672, 0.8154058, 0.4370013, -1.3654605, 15.1757419, -5.3796629
1891015477830250, 0, -0.1406383, 0.6820792, 0.4418104, -0.2179468, 15.9433456, -8.1243553
1891015487792250, 0, -0.1502979, 0.5161358, 0.4286709, 0.8903485, 16.6916396, -10.4461771
1891015497755250, 0, -0.1472619, 0.2882555, 0.4862522, 1.2870236, 16.1059076, -7.4534505
1891015507717250, 0, -0.1989267, 0.1795793, 0.5277038, 1.7089961, 15.8032370, -7.8176431
1891015517679250, 0, -0.1969959, 0.0803015, 0.5892947, 1.6757652, 15.3847073, -6.6695306
1891015527641250, 0, -0.0768785, -0.0500520, 0.6953210, 1.3949492, 14.6323718, -6.0255698
1891015537603250, 0, 0.3207000, -0.2592025, 0.8593342, 1.0623409, 13.8403688, -4.2908272
1891015547566250, 0, 1.0080438, -0.3315556, 0.9900349, 0.9325607, 12.7765311, -2.0172052
1891015557528250, 0, 1.7071254, -0.3005835, 1.0007573, 1.5988252, 12.0870648, -3.1909145
1891015567490250, 0, 2.1694326, -0.5012410, 0.9322100, 2.8279193, 11.2309950, -5.6908658
1891015577452250, 0, 2.3057525, -0.7887540, 0.8334687, 4.1418869, 10.1640138, -8.0325961
1891015587415250, 0, 2.1022792, -0.9523032, 0.7072845, 5.3846027, 9.3627301, -9.5167598
1891015597377250, 0, 1.5787815, -0.9390569, 0.5220579, 6.2141776, 9.2585468, -10.0718056
1891015607339250, 0, 0.7395952, -0.7534136, 0.2771261, 6.2870760, 9.5980408, -10.6987019
1891015617301250, 0, -0.2863466, -0.4013570, 0.0307513, 5.5170772, 9.6056749, -10.8340205
1891015627263250, 0, -1.2688833, 0.0739568, -0.1562873, 4.2129890, 9.4133249, -9.9873811
1891015637226250, 0, -1.9542955, 0.4948758, -0.1877600, 2.5568330, 9.2639355, -8.8245992
1891015647188250, 0, -2.2072787, 0.7607674, -0.0699551, 1.0186317, 8.9349197, -7.3208263
1891015657150250, 0, -2.0054133, 0.8922617, 0.0930386, 0.4872368, 8.6895799, -5.4101994
1891015667112250, 0, -1.3987705, 0.9547850, 0.2027936, 0.9810599, 8.5428850, -3.1290930
1891015677074250, 0, -0.5258577, 0.9732589, 0.2279751, 1.7720151, 8.3827180, -1.0660831
1891015687037250, 0, 0.3986470, 0.8830334, 0.1701198, 2.5572821, 7.9947249, 0.0185614
1891015696999250, 0, 1.1491069, 0.6190033, 0.0329257, 3.1828313, 7.4220158, -0.3267705
1891015706961250, 0, 1.6043521, 0.2602430, -0.1712860, 3.5970200, 6.9928583, -1.6051122
1891015716923250, 0, 1.8032831, -0.0455110, -0.4006579, 3.5688785, 6.4235921, -2.6063800
1891015726886250, 0, 1.8239063, -0.2903442, -0.5759653, 3.0749057, 5.7137682, -3.0368848
1891015736848250, 0, 1.7070258, -0.4458379, -0.6457891, 2.3662793, 5.1374666, -3.4669405
1891015746810250, 0, 1.4875309, -0.4977640, -0.6479498, 1.7124390, 4.4240501, -3.7531453
1891015756772250, 0, 1.1960217, -0.4677166, -0.6364084, 1.2921130, 3.5881883, -4.0920406
1891015766734250, 0, 0.8599808, -0.4386706, -0.6309034, 1.0433304, 2.8675868, -4.5409570
1891015776697250, 0, 0.5411311, -0.4496047, -0.6412714, 0.7780820, 2.3432272, -4.9445178
1891015786659250, 0, 0.3303015, -0.5181515, -0.6442336, 0.5113367, 1.8326390, -4.8303053
1891015796621250, 0, 0.2272081, -0.6181756, -0.6770182, 0.4763095, 1.4410533, -4.4842250
1891015806583250, 0, 0.1817741, -0.7560019, -0.7496103, 0.5686674, 1.1460168, -4.3736050
1891015816545250, 0, 0.1467934, -0.9406655, -0.8475809, 0.6975494, 0.8801697, -4.4427612
1891015826508250, 0, 0.0809747, -1.1506946, -0.9688237, 0.7792795, 1.0084529, -4.7687833
1891015836470250, 0, 0.0701519, -1.3953366, -1.1106141, 0.5969586, 1.4275813, -5.0319360
1891015846432250, 0, 0.1277929, -1.6619889, -1.1891017, 0.2439926, 1.2102333, -4.7734236
1891015856394250, 0, 0.2093495, -1.9483516, -1.1704060, -0.0998424, 1.0632390, -4.8797026
1891015866357250, 0, 0.2711513, -2.0895176, -1.1361264, -0.2999762, 1.5874489, -4.8533574
1891015876319250, 0, 0.2529694, -1.8994091, -1.1284796, -0.6502478, 2.2385948, -4.3215134
1891015886281250, 0, 0.0415570, -1.3991511, -1.1168743, -1.3126204, 3.0921199, -4.3155258
1891015896243250, 0, -0.2348929, -0.7983853, -1.0336168, -1.9523900, 3.9561232, -5.2079700
1891015906205250, 0, -0.3134671, -0.2660889, -0.8749765, -2.4774980, 4.1450304, -5.1997371
1891015916168250, 0, -0.1700157, 0.0942085, -0.6270027, -2.8113039, 3.7537440, -4.5960425
1891015926130250, 0, 0.0336301, 0.2481850, -0.3452607, -2.7774742, 3.7221597, -5.3304153
1891015936092250, 0, 0.1238080, 0.2866371, -0.1623026, -2.2620959, 4.5770320, -7.2037697
1891015946054250, 0, 0.1410290, 0.2822852, -0.1180984, -1.6253201, 5.9896445, -8.1045964
1891015956017250, 0, 0.1103718, 0.2939885, -0.1103534, -1.3638139, 7.3422318, -8.0477147
1891015965979250, 0, 0.0710569, 0.3948834, -0.0841828, -1.4440471, 8.1260019, -8.1267503
1891015975941250, 0, 0.0295193, 0.4565028, -0.0110247, -1.7995578, 8.1947090, -8.3463437
1891015985903250, 0, -0.0471806, 0.3117038, 0.0763779, -2.0163071, 8.3683479, -9.7465320
1891015995865250, 0, -0.0867924, 0.1252423, 0.0732550, -1.7865349, 9.0181467, -9.7999709
1891016005828250, 0, -0.1249353, 0.1262306, 0.0263059, -1.6971707, 9.7594052, -8.6936215
1891016015790250, 0, -0.1863709, 0.2830229, 0.0198320, -2.1788690, 10.2140099, -8.1150746
1891016025752250, 0, -0.2208045, 0.4665230, 0.0355282, -2.7568172, 10.6982529, -7.6553806
1891016035714250, 0, -0.2780671, 0.6886514, 0.0464911, -3.0500574, 11.1997101, -7.6573265
1891016045676250, 0, -0.7864972, 0.9775372, 0.0607946, -2.9907806, 11.8888770, -11.9978503
1891016055639250, 0, -1.2163801, 1.0479059, 0.0838709, -2.4876768, 12.2806123, -15.6539973
1891016065601250, 0, -0.9561124, 1.0591245, 0.1840119, -1.9423608, 11.6526682, -7.0747380
1891016075563250, 0, -0.6291449, 0.8292497, 0.3311090, -1.2551399, 11.1464209, -5.9615030
1891016085525250, 0, -0.3371836, 0.4476172, 0.3495953, -0.4451743, 11.0991193, -8.2608714
1891016095488250, 0, -0.0026376, 0.2253423, 0.2586326, -0.2107617, 11.2946127, -6.5089146
1891016105450250, 0, 0.3244252, 0.1715715, 0.1166174, -0.4607419, 11.1278595, -5.3227812
1891016115412250, 0, 0.4907109, 0.1697840, -0.0174325, -0.7039861, 11.0612480, -6.3619203
1891016125374250, 0, 0.5772727, 0.0296085, -0.0703216, -1.1470647, 11.1278595, -8.0986089
1891016135336042, 0, 0.7655379, -0.0998994, -0.0497569, -1.9383192, 10.8485403, -6.9307375
1891016145299042, 0, 0.8306320, -0.3310176, -0.0047399, -2.4444168, 10.5883813, -7.6998381
1891016155261042, 0, 0.8187617, -0.5933344, 0.0235125, -2.6445506, 10.4071083, -8.9938971
1891016165223042, 0, 0.7173573, -0.6301804, 0.0106359, -2.4715105, 10.4223766, -8.7296965
1891016175185042, 0, 0.5317880, -0.5093881, -0.0472716, -2.1806653, 10.1776355, -9.1111034
1891016185148042, 0, 0.3328304, -0.3879818, -0.1105478, -2.3429279, 9.9236137, -9.0004834
1891016195110042, 0, 0.1283854, -0.3214068, -0.1500324, -3.1564861, 10.0016016, -9.1569081
1891016205072042, 0, -0.0572875, -0.2774878, -0.1328129, -4.4203079, 9.9616347, -9.3506053
1891016215034042, 0, -0.1592858, -0.2073841, -0.0432657, -5.7492444, 9.8839462, -8.8275929
1891016224996042, 0, -0.2153112, -0.1254096, 0.1229850, -6.9287915, 9.8327527, -8.2274908
1891016234959042, 0, -0.2985334, -0.0783374, 0.3194496, -7.6594221, 9.8587985, -8.4786685
1891016244921042, 0, -0.3904079, 0.0250452, 0.5058919, -7.4260574, 9.9096927, -8.1274988
1891016254883042, 0, -0.4524825, 0.2508266, 0.6478992, -6.5137047, 9.8737674, -7.0744386
1891016264845042, 0, -0.4496185, 0.4650212, 0.7078243, -5.3721785, 9.6932428, -6.0348505
1891016274808042, 0, -0.3870521, 0.5932178, 0.7205848, -4.2454715, 9.4952046, -5.1471964
1891016284770042, 0, -0.2893162, 0.6674353, 0.7471818, -3.4233810, 9.1760683, -4.4227029
1891016294732042, 0, -0.1759958, 0.7788356, 0.8246843, -2.9154872, 8.5599495, -3.5325041
1891016304694042, 0, -0.0751227, 0.9153583, 0.9378444, -2.5459058, 7.7288777, -2.7551706
1891016314656042, 0, -0.0170512, 0.9886674, 1.0839074, -2.1649480, 6.8473608, -2.6102719
1891016324619042, 0, -0.0014320, 0.9590496, 1.2534602, -1.7823436, 5.8686960, -2.7339148
1891016334581042, 0, -0.0240835, 0.8186227, 1.4385467, -1.3283377, 4.8482680, -2.9841943
1891016344543042, 0, -0.0594181, 0.6083379, 1.5867382, -0.6788383, 3.9598654, -3.2573763
1891016354505042, 0, -0.0894106, 0.4049025, 1.6307372, -0.1142125, 3.3079710, -3.1778915
1891016364468042, 0, -0.1414184, 0.1840993, 1.5881697, 0.3513194, 2.7693910, -3.3685950
1891016374430042, 0, -0.1997440, 0.0076209, 1.5111912, 0.6222560, 2.2164409, -3.6675233
1891016384392042, 0, -0.2474692, 0.0013156, 1.4442961, 0.5450166, 1.6272661, -3.4317636
1891016394354042, 0, -0.2544975, 0.1556453, 1.4072841, 0.3191364, 1.2228072, -2.9906310
1891016404316042, 0, -0.1711459, 0.4329040, 1.3648559, 0.4793033, 1.2391232, -2.4480093
1891016414279042, 0, 0.0267621, 0.7460313, 1.2845461, 0.8520282, 1.7869839, -1.7765057
1891016424241042, 0, 0.2711918, 1.0088345, 1.1331953, 1.3723462, 2.5773404, -1.4358142
1891016434203042, 0, 0.4394711, 1.1923481, 0.9115846, 2.1820125, 3.4075140, -1.9790346
1891016444165042, 0, 0.4656777, 1.3351297, 0.6432269, 3.0831386, 4.1373962, -2.9445268
1891016454128042, 0, 0.3602799, 1.3977433, 0.3912080, 3.9674995, 4.6060716, -3.8098773
1891016464090042, 0, 0.1673733, 1.3740047, 0.1533728, 4.7692323, 4.9398775, -4.6428951
1891016474052042, 0, -0.0002695, 1.2723609, -0.0909123, 5.2334171, 5.2489847, -5.0234038
1891016484014042, 0, -0.0882944, 1.1007742, -0.3009255, 4.9485594, 5.3199371, -5.1232462
1891016493976042, 0, -0.1410399, 0.8382787, -0.4306928, 4.2507106, 5.3816089, -5.3283197
1891016503939042, 0, -0.1636406, 0.5394355, -0.4887258, 3.4685870, 5.4091516, -5.5540503
1891016513901042, 0, -0.1618302, 0.3700574, -0.4857731, 2.7131081, 5.4030144, -5.6529945
1891016523863042, 0, -0.1824505, 0.3117230, -0.4420712, 2.1894969, 5.5238132, -6.2337868
1891016533825042, 0, -0.2853660, 0.1042164, -0.3791002, 2.1686902, 5.9616527, -7.3757620
1891016543788042, 0, -0.4808377, -0.2839372, -0.3206395, 2.4914191, 6.4753844, -8.3623604
1891016553750042, 0, -0.6653386, -0.6266431, -0.2671281, 2.3990611, 6.7663792, -8.1367795
1891016563712042, 0, -0.7787237, -0.7435026, -0.2304918, 1.8600320, 6.9716025, -7.3521112
1891016573674042, 0, -0.8415597, -0.6818459, -0.2204783, 1.2754976, 7.4483611, -7.2798116
1891016583636042, 0, -0.8422806, -0.5901645, -0.2440004, 0.9464818, 8.0014609, -7.3827974
1891016593599042, 0, -0.7018386, -0.4357589, -0.2696246, 0.9678873, 8.2108754, -6.4301784
1891016603561042, 0, -0.3815261, -0.2533953, -0.2814399, 0.8843610, 8.8305867, -5.4128938
1891016613523042, 0, 0.1138315, -0.1128869, -0.2939110, 0.6162685, 9.9215181, -4.7255232
1891016623485042, 0, 0.6688681, -0.0443581, -0.3314818, 0.2338138, 11.0786119, -4.5367657
1891016633448042, 0, 1.1263499, -0.0492749, -0.4161591, -0.0806822, 12.1300255, -5.1382150
1891016643410042, 0, 1.3685516, 0.1307138, -0.5173838, -0.2972818, 12.9497209, -6.8774483
1891016653372042, 0, 1.1792629, 0.4318646, -0.5854571, -0.1556763, 13.7957616, -11.4462474
1891016663334042, 0, 0.7893943, 0.3509213, -0.5760623, 0.9506731, 13.5004257, -12.2219344
1891016673296042, 0, 0.3728135, 0.3776248, -0.5495625, 2.3695724, 13.1552435, -10.3737277
1891016683259042, 0, -0.0425797, 0.5392116, -0.6040894, 3.5907330, 13.7282520, -10.8374634
1891016693221042, 0, -0.3536814, 0.6575885, -0.6838928, 3.9913000, 13.5095567, -10.5424269
1891016703183042, 0, -0.4531297, 0.5463970, -0.6962011, 3.5673816, 12.2770198, -9.6830640
1891016713145042, 0, -0.3092058, 0.2762771, -0.6091413, 3.0566437, 11.2589868, -8.6085983
1891016723108042, 0, 0.1346585, -0.0440756, -0.4071667, 2.5822801, 10.4020189, -6.9903136
1891016733070042, 0, 0.8431627, -0.2276489, -0.1986755, 2.5246500, 9.5634627, -5.1795291
1891016743032042, 0, 1.5278825, -0.3083690, -0.1203592, 3.1807356, 8.8861212, -5.0760942
1891016752994042, 0, 1.8511186, -0.4732187, -0.1473165, 4.0516246, 8.3399071, -7.1247340
1891016762956042, 0, 1.7380399, -0.6567981, -0.1754629, 4.5614644, 7.8472815, -9.6531262
1891016772919042, 0, 1.2703558, -0.7203252, -0.1954704, 5.0777408, 7.4449182, -11.1149863
1891016782881042, 0, 0.6280698, -0.5495534, -0.2805579, 5.8595650, 7.3810011, -11.0492729
1891016792843042, 0, -0.0101086, -0.1900839, -0.4934526, 6.3456042, 8.1912662, -10.2276315
1891016802805042, 0, -0.5282683, 0.2302263, -0.7816420, 5.9638980, 8.8000502, -9.1371492
1891016812768042, 0, -0.8935222, 0.5343670, -0.9649138, 4.6485832, 8.8476512, -8.5653383
1891016822730042, 0, -1.0747948, 0.6224945, -0.9507285, 3.1124776, 8.5060616, -8.3143103
1891016832692042, 0, -1.0287664, 0.4789434, -0.8061716, 2.2472768, 8.1339354, -7.6254428
1891016842654042, 0, -0.7292803, 0.1765345, -0.6433097, 2.2011726, 7.6558296, -6.4433510
1891016852617042, 0, -0.2377311, -0.1808366, -0.5618353, 2.7463390, 7.3396870, -4.9335905
1891016862579042, 0, 0.2704962, -0.5909482, -0.5647840, 3.3816179, 6.9388206, -3.9416034
1891016872541042, 0, 0.6041330, -0.9575379, -0.6197818, 3.8211040, 6.6472270, -3.8251456
1891016882503042, 0, 0.7752241, -1.1382211, -0.7047228, 3.8875658, 6.3194087, -3.6395316
1891016892465042, 0, 0.8787971, -1.1128418, -0.7623794, 3.1076875, 5.9772203, -2.8358528
1891016902428042, 0, 0.9399356, -1.0233181, -0.7586225, 1.8526973, 6.0242226, -2.3866370
1891016912390042, 0, 0.8417696, -1.0631443, -0.7001128, 0.8228389, 5.9242305, -3.0624815
1891016922352042, 0, 0.5867623, -1.1684673, -0.6510934, 0.1796265, 5.5205200, -4.0793170
1891016932314042, 0, 0.3480658, -1.1316488, -0.6030366, -0.1907034, 5.1058823, -3.8639149
1891016942277042, 0, 0.1726644, -0.9910102, -0.5209071, -0.5951624, 4.5650569, -3.2700998
1891016952239042, 0, 0.0282077, -0.8580090, -0.4210413, -0.9445358, 3.8251456, -3.4215848
1891016962201042, 0, -0.0864156, -0.7462060, -0.3365453, -1.0352472, 3.0654753, -3.7520975
1891016972163042, 0, -0.1782715, -0.6303561, -0.2633992, -1.0747650, 2.4709117, -3.7808377
1891016982125042, 0, -0.2525931, -0.5189148, -0.1963684, -1.1621832, 1.8896704, -3.8297859
1891016992088042, 0, -0.2733056, -0.4379393, -0.1391107, -1.0069560, 1.1787987, -3.8115239
1891017002050042, 0, -0.1866887, -0.4098395, -0.1101992, -0.6496490, 0.7595206, -3.4262251
1891017012012042, 0, -0.0129789, -0.5161214, -0.1327900, -0.4950206, 0.8282277, -3.1362781
1891017021974042, 0, 0.1785269, -0.7919961, -0.1361704, -0.6836284, 0.9282198, -3.4525703
1891017031937042, 0, 0.3253376, -1.0834144, -0.0639603, -1.1647279, 1.0527608, -3.8818776
1891017041899042, 0, 0.3613191, -1.1973263, 0.0426657, -1.3651611, 1.5160474, -4.3234593
1891017051861042, 0, 0.3142658, -1.0833505, 0.0845197, -0.8746312, 2.4471112, -4.6268784
1891017061823042, 0, 0.2450734, -0.9133564, 0.0287829, -0.0417632, 3.6232155, -4.7853987
1891017071786042, 0, 0.1804329, -0.8438045, -0.1168172, 0.6309380, 4.8773076, -5.4223242
1891017081748042, 0, 0.1371376, -0.7688006, -0.3341165, 0.8484357, 6.0019189, -5.9363553
1891017091710042, 0, 0.1427934, -0.5630429, -0.5412412, 0.3785628, 6.7050069, -5.5940172
1891017101672042, 0, 0.1706330, -0.2705929, -0.6394628, -0.6918613, 6.9314859, -5.3368520
1891017111634042, 0, 0.1161719, 0.0566287, -0.6112272, -1.5148499, 6.8835855, -6.2780946
1891017121597042, 0, -0.0646243, 0.3950469, -0.5717596, -1.5877483, 7.2233789, -8.0646295
1891017131559042, 0, -0.2467563, 0.7309226, -0.5522818, -1.1954141, 7.7134598, -9.0480844
1891017141521500, 0, -0.3189167, 0.9769250, -0.5373588, -0.9556128, 7.9567039, -8.7367319
1891017151483500, 0, -0.2755930, 1.0399919, -0.5417232, -0.8942404, 8.1336360, -8.3265848
1891017161446500, 0, -0.2493947, 0.9254258, -0.5188013, -0.9648935, 8.3592169, -8.5852469
1891017171408500, 0, -0.4154148, 0.6589313, -0.4802468, -0.8318202, 8.8280420, -10.7973468
1891017181370500, 0, -0.5736595, 0.4084045, -0.4771234, -0.4044589, 9.5769347, -11.6758699
1891017191332500, 0, -0.5395556, 0.3425286, -0.4555095, -0.3983217, 9.8472725, -9.2609418
1891017201294500, 0, -0.3752828, 0.3396100, -0.3740125, -0.9288185, 9.8221248, -7.7719881
1891017211257500, 0, -0.1485370, 0.2646327, -0.2513981, -1.6467256, 10.2503842, -7.2831047
1891017221219500, 0, 0.0115696, 0.2368591, -0.1534689, -1.9928059, 11.1908784, -7.4540492
1891017231181500, 0, -0.5044027, 0.2507313, -0.1261755, -1.2261003, 12.4798480, -13.8878201
1891017241143500, 0, -0.6875739, 0.1073723, -0.1451900, -0.5683681, 12.6816284, -15.6195689
1891017251106500, 0, -0.1970223, 0.1358907, -0.0170139, -1.6825012, 12.1144579, -5.2632051
1891017261068500, 0, 0.0201769, -0.1255877, 0.0868521, -1.9303857, 12.2300175, -8.8388196
1891017271030500, 0, 0.3306946, -0.5129927, 0.0374462, -1.3825250, 11.7478702, -10.2659518
1891017280992500, 0, 0.7734227, -0.6834409, -0.0351037, -1.7682729, 11.9258501, -5.7778349
1891017290955500, 0, 1.0081332, -0.7525480, -0.0511473, -2.9059071, 11.5356116, -6.4693968
1891017300917500, 0, 1.0367734, -0.7151008, -0.0298104, -3.9080731, 10.9383536, -7.9293109
1891017310879500, 0, 1.1342944, -0.5817995, 0.0114532, -4.5905040, 10.6530469, -6.4002406
1891017320841500, 0, 1.1079413, -0.4875537, 0.0777883, -5.1552795, 10.3428918, -6.5651976
1891017330803500, 0, 0.9202492, -0.4617261, 0.1129287, -5.2426978, 9.5701987, -9.6676460
1891017340766500, 0, 0.7247614, -0.4115500, 0.1109726, -5.1437535, 9.3082434, -9.7793138
1891017350728500, 0, 0.5076691, -0.3448935, 0.1052388, -5.1844688, 9.0950867, -9.7107564
1891017360690500, 0, 0.2945989, -0.2214232, 0.0890857, -5.1233958, 8.4291216, -9.6207935
1891017370652500, 0, 0.0794504, -0.1127742, 0.0730172, -5.0635204, 8.1619272, -9.5185561
1891017380615500, 0, -0.1387763, -0.0471545, 0.0605150, -5.1123189, 8.1743513, -9.3928175
1891017390577500, 0, -0.3410740, 0.0437137, 0.0688896, -5.1831216, 8.2289877, -8.9190527
1891017400539500, 0, -0.5037857, 0.1873806, 0.1170276, -5.2781740, 8.0968126, -8.2324306
1891017410501500, 0, -0.6258535, 0.3524497, 0.1902099, -5.2283276, 7.8287201, -7.7218423
1891017420464500, 0, -0.6826199, 0.4944824, 0.2855726, -5.1873129, 7.5308395, -6.9748956
1891017430426500, 0, -0.6548678, 0.5534161, 0.4188444, -5.3143987, 7.3299573, -6.0867924
1891017440388500, 0, -0.5521894, 0.5267136, 0.6156523, -5.4284615, 7.0073781, -5.3634966
1891017450350500, 0, -0.4070317, 0.4661014, 0.9092453, -5.3194881, 6.5651976, -4.7253735
1891017460312500, 0, -0.2224975, 0.4478470, 1.1836497, -4.8321016, 6.1884311, -3.9425015
1891017470275500, 0, -0.0358312, 0.3932323, 1.3836139, -3.6365378, 5.7886125, -3.2729439
1891017480237500, 0, 0.1168345, 0.2508442, 1.4980271, -2.1944366, 5.3750226, -3.0862820
1891017490199500, 0, 0.2252262, 0.1101393, 1.5226762, -0.6953041, 4.9111372, -3.1906151
1891017500161500, 0, 0.3015811, 0.0140871, 1.4592363, 0.5346881, 4.2924738, -3.1413675
1891017510124500, 0, 0.3631558, -0.0879570, 1.3424954, 1.4004877, 3.6766544, -3.1171179
1891017520086500, 0, 0.4086943, -0.2103745, 1.2059031, 1.8404228, 3.3702415, -3.1877710
1891017530048500, 0, 0.4256168, -0.3132509, 1.0790529, 1.8509010, 3.2049852, -3.3295262
1891017540010500, 0, 0.3781827, -0.3676994, 0.9850687, 1.4943425, 2.9102481, -3.6329453
1891017549973500, 0, 0.2618870, -0.3646222, 0.9360902, 0.9014255, 2.5737479, -4.0309676
1891017559935500, 0, 0.1035251, -0.3413581, 0.9375733, 0.3104544, 2.3471191, -4.4185117
1891017569897500, 0, -0.1018321, -0.3951367, 0.9547659, 0.0137714, 2.1938379, -4.7630951
1891017579859500, 0, -0.3106087, -0.4111750, 0.9354220, 0.1646576, 2.2884412, -5.0064890
1891017589821500, 0, -0.4258616, -0.3273286, 0.8682560, 0.2826123, 2.2345532, -4.8174321
1891017599784500, 0, -0.4109801, -0.1979666, 0.7767887, 0.1026865, 2.0573218, -4.3316922
1891017609746500, 0, -0.2942452, -0.1541526, 0.7012883, -0.3266208, 1.9868184, -4.2601410
1891017619708500, 0, -0.1088018, -0.1833642, 0.6888328, -0.8279283, 2.0176543, -4.4351271
1891017629670500, 0, 0.0847162, -0.2139682, 0.7320790, -1.1066487, 2.2146446, -4.7827043
1891017639633500, 0, 0.2325723, -0.2428153, 0.7925860, -0.9105565, 2.5643175, -5.3169434
1891017649595500, 0, 0.3063543, -0.2473901, 0.8416955, -0.3471281, 3.0407767, -5.8832158
1891017659557500, 0, 0.3205666, -0.1972153, 0.8633614, 0.2098636, 3.4817596, -6.1638821
1891017669519500, 0, 0.2787571, -0.1030321, 0.8330227, 0.6012996, 3.9408549, -6.2611798
1891017679482500, 0, 0.1597234, -0.0746447, 0.7679062, 0.7789801, 4.6505292, -6.4234424
1891017689444500, 0, -0.0170828, 0.0164240, 0.6682643, 0.9578581, 5.4892351, -7.0856653
1891017699406500, 0, -0.2735756, 0.1738711, 0.5161195, 1.0500664, 6.1791504, -8.1733035
1891017709368500, 0, -0.5437855, 0.3865552, 0.3612674, 1.0954221, 6.5840584, -8.8695058
1891017719331500, 0, -0.7489355, 0.5378683, 0.2390296, 1.0539583, 6.9010991, -8.6545528
1891017729293500, 0, -0.7959437, 0.6142552, 0.1605202, 0.8226892, 7.3179822, -7.7445950
1891017739255500, 0, -0.7317946, 0.4842311, 0.0912308, 0.5782475, 7.9394897, -7.5064403
1891017749217500, 0, -0.6537957, 0.2131541, 0.0327380, 0.2341132, 8.8957013, -8.5244733
1891017759179500, 0, -0.5695665, -0.0835519, 0.0192254, -0.1019380, 9.8143410, -8.8165160
1891017769142500, 0, -0.4551925, -0.3081360, 0.0782799, -0.4501140, 10.2837648, -8.0602885
1891017779104500, 0, -0.3106503, -0.4241321, 0.1744283, -0.6670129, 10.8418044, -7.5723033
1891017789066500, 0, -0.1044417, -0.4312531, 0.2794758, -0.7415579, 11.3197604, -6.8702632
1891017799028500, 0, 0.1631266, -0.3996994, 0.3843423, -0.6851253, 11.7079033, -6.0773621
1891017808991500, 0, 0.4776853, -0.4662426, 0.5011039, -0.6463559, 12.0343744, -5.7510406
1891017818953500, 0, 0.6314771, -0.8213322, 0.5886065, -0.3676355, 12.3690784, -7.6324782
1891017828915500, 0, 0.1630608, -1.1427438, 0.5836539, 0.6397696, 12.8429929, -15.2408565
1891017838877500, 0, -0.1733558, -0.7359960, 0.5316040, 2.3444247, 11.9218085, -11.1729158
1891017848840500, 0, -0.2616606, -0.4909306, 0.5106199, 2.6454488, 10.6698120, -6.5131059
1891017858802500, 0, -0.3291579, -0.6855022, 0.5024389, 2.0604652, 10.8519832, -9.8573016
1891017868764500, 0, -0.1951066, -0.7780060, 0.4772768, 1.8962567, 10.9049730, -8.9536308
1891017878726500, 0, 0.1088746, -0.6407981, 0.4156726, 1.9815793, 10.4982687, -7.0940479
1891017888689500, 0, 0.5616167, -0.4505768, 0.3306165, 2.0993843, 10.0607286, -5.6946080
1891017898651500, 0, 1.0866272, -0.3547682, 0.2572393, 1.9947519, 9.7814095, -4.9505054
1891017908613500, 0, 1.4983485, -0.3464887, 0.1982106, 1.9606229, 9.5046350, -5.9912910
1891017918575500, 0, 1.5140444, -0.4080951, 0.1670505, 2.5448579, 8.9465955, -8.8332811
1891017928537500, 0, 1.0853492, -0.4193291, 0.1550825, 3.4636473, 8.3264351, -11.9682120
1891017938500500, 0, 0.4111955, -0.2564387, 0.1167879, 4.4480003, 8.1430664, -13.8854251
1891017948462500, 0, -0.2696059, 0.0118596, 0.0407075, 5.1177077, 8.3282314, -13.8349800
1891017958424500, 0, -0.8434154, 0.1973450, -0.0519215, 5.2265314, 8.4342110, -13.0323491
1891017968386500, 0, -1.2583380, 0.2856624, -0.1262919, 4.7641429, 8.5539619, -11.9727026
1891017978349500, 0, -1.5346849, 0.3131148, -0.1493557, 4.0047720, 8.5389931, -10.8084238
1891017988311500, 0, -1.6326605, 0.3227618, -0.1189882, 3.2885115, 8.0035565, -9.7350060
1891017998273500, 0, -1.5037081, 0.2663707, -0.0215815, 2.6520351, 7.5642201, -8.0929207
1891018008235500, 0, -1.1281118, 0.2057761, 0.0912050, 2.1424947, 7.2603520, -6.1619362
1891018018198500, 0, -0.5597664, 0.1853294, 0.2153464, 1.7588425, 7.1263806, -4.0888971
1891018028160500, 0, 0.0783403, 0.1635530, 0.3410447, 1.4388080, 6.9133736, -2.7497818
1891018038122500, 0, 0.6595694, 0.1012510, 0.4422024, 1.4769786, 6.6574059, -2.3601421
1891018048084500, 0, 1.0673100, -0.0606024, 0.4841004, 1.8532961, 6.4261368, -2.6084756
1891018058047500, 0, 1.2388877, -0.3219897, 0.4468020, 2.4031027, 6.3954506, -3.5097514
1891018068009500, 0, 1.1771870, -0.6261470, 0.3410508, 2.7701395, 6.2997995, -4.3228606
1891018077971500, 0, 0.9390756, -0.9164534, 0.2219976, 2.7592122, 5.9547670, -4.8319519
1891018087933500, 0, 0.5877597, -1.1364797, 0.1339895, 2.3255640, 5.3575090, -5.1033376
1891018097895500, 0, 0.1980268, -1.2962894, 0.0853146, 1.7414786, 4.3899211, -5.4289105
1891018107858500, 0, -0.1545307, -1.2921287, 0.0724185, 1.2124786, 3.4925372, -5.2645523
1891018117820500, 0, -0.4073299, -1.1396534, 0.0809186, 0.6188132, 2.7246341, -4.5623625
1891018127782500, 0, -0.5591160, -0.9957117, 0.0993463, -0.0643661, 2.2219794, -4.0008801
1891018137744125, 0, -0.5912727, -0.8712931, 0.1277492, -0.7473958, 1.9082318, -3.6953654
1891018147707125, 0, -0.4692863, -0.7634015, 0.1420972, -1.3370197, 1.8103354, -3.1873219
1891018157669125, 0, -0.2239210, -0.7190109, 0.1325753, -1.8028510, 1.9829265, -2.4974066
1891018167631125, 0, 0.0253264, -0.6066747, 0.1087489, -2.0776794, 1.9932550, -2.3189777
1891018177593125, 0, 0.2456524, -0.4065891, 0.1312355, -2.3131398, 1.7717157, -2.4408243
1891018187556125, 0, 0.4053321, -0.2805693, 0.1884985, -2.3315515, 2.0860620, -2.8521689
1891018197518125, 0, 0.4223584, -0.1269827, 0.3184954, -2.0026854, 1.7889299, -3.8233493
1891018207480125, 0, 0.3404569, 0.0386880, 0.4927927, -1.3834232, 1.9377205, -4.8626381
1891018217442125, 0, 0.2571373, 0.1048724, 0.6419361, -0.7608678, 2.3891817, -5.4592973
1891018227405125, 0, 0.1953343, -0.0043386, 0.6841533, -0.0999921, 2.8871960, -5.8627084
1891018237367125, 0, 0.1619838, -0.1059392, 0.6550652, 0.6798862, 3.4938844, -6.2822859
1891018247329125, 0, 0.1558085, -0.1229973, 0.6247632, 1.1994557, 3.8124220, -6.4493385
1891018257291125, 0, 0.1256661, -0.1340265, 0.6024414, 1.2614268, 3.8603224, -7.0983888
1891018267254125, 0, 0.0696720, -0.1532876, 0.5698349, 1.0645862, 4.1358994, -7.7716887
1891018277216125, 0, -0.0055519, -0.2001406, 0.5493233, 0.8216414, 4.5096721, -8.5243236
1891018287178125, 0, -0.0968733, -0.2759829, 0.5109328, 0.6941066, 4.9684680, -9.3751543
1891018297140125, 0, -0.2301701, -0.3768879, 0.4438792, 0.8020322, 5.4935760, -10.4044139
1891018307102125, 0, -0.4126789, -0.4550330, 0.3754463, 1.2487033, 6.0350002, -11.1577972
1891018317065125, 0, -0.5541833, -0.4999592, 0.3095730, 1.5331119, 6.6967740, -10.7624693
1891018327027125, 0, -0.5983492, -0.4910272, 0.2585037, 1.5862514, 7.2284683, -9.8875388
1891018336989125, 0, -0.5294103, -0.3563549, 0.2038770, 1.4603632, 7.7050772, -9.2456735
1891018346951125, 0, -0.4290861, -0.1147444, 0.0925723, 1.3362712, 8.2938029, -9.4975996
1891018356914125, 0, -0.3640728, 0.1034191, -0.0530209, 1.1581416, 8.7373306, -9.5249927
1891018366876125, 0, -0.3009335, 0.2268928, -0.2124595, 0.8093669, 9.0003337, -9.1139474
1891018376838125, 0, -0.2590233, 0.2133200, -0.3585075, 0.3647914, 9.5318784, -9.1347542
1891018386800125, 0, -0.2609206, 0.1626574, -0.4066679, -0.1953438, 10.2156564, -9.2732162
1891018396763125, 0, -0.2724121, 0.1702061, -0.3485609, -0.7235953, 10.3737277, -8.8768405
1891018406725125, 0, -0.3970150, 0.2072863, -0.2698610, -0.6111790, 10.5868845, -11.5445929
1891018416687125, 0, -0.9723254, 0.1001894, -0.2616146, 0.9662407, 11.7983153, -16.6144002
1891018426649125, 0, -1.4583068, -0.2148071, -0.2179792, 1.4676979, 10.8212970, -13.1362331
1891018436612125, 0, -1.5903831, -0.2108723, -0.1144371, 0.9557625, 9.2648337, -9.5805272
1891018446574125, 0, -1.4920634, -0.1595162, -0.0548419, 1.4013858, 9.5890594, -9.0515273
1891018456536125, 0, -1.1769638, -0.0536371, -0.1418480, 1.8176701, 9.7522202, -7.6160124
1891018466498125, 0, -0.7314494, 0.0174954, -0.3415903, 1.4410533, 10.2303259, -5.7895107
1891018476461125, 0, -0.2344612, 0.0654693, -0.5675005, 0.3562592, 10.9808652, -5.0181647
1891018486423125, 0, 0.1276898, 0.1051323, -0.7935277, -0.8764275, 11.8872304, -6.4493385
1891018496385125, 0, 0.1995845, 0.1357970, -0.9644459, -1.8628761, 12.3193817, -8.0553488
1891018506347125, 0, 0.0899650, 0.1909870, -1.0182096, -2.5988956, 11.9164197, -8.1330373
1891018516309125, 0, -0.1165072, 0.2972708, -0.9699408, -2.9684770, 11.4585219, -7.8649448
1891018526272125, 0, -0.3523762, 0.3668739, -0.8999423, -2.8464807, 11.1814481, -8.0318477
1891018536234125, 0, -0.5566363, 0.3486640, -0.8651713, -2.3626868, 10.8299789, -8.3301773
1891018546196125, 0, -0.6538585, 0.3492576, -0.8063613, -1.9832259, 10.5564977, -7.7820172
1891018556158125, 0, -0.6467229, 0.4260136, -0.7316265, -1.9405646, 10.6229594, -6.7051566
1891018566121125, 0, -0.5863681, 0.5203220, -0.6994561, -2.1122575, 10.7721991, -5.6471567
1891018576083125, 0, -0.5063756, 0.6269819, -0.7032769, -2.3541545, 11.0935808, -4.7921347
1891018586045125, 0, -0.5084877, 0.7013932, -0.6938264, -2.6863138, 11.1341464, -4.7853987
1891018596007125, 0, -0.6208044, 0.6876655, -0.6490529, -3.0672716, 10.5743106, -5.2262320
1891018605970125, 0, -0.7511041, 0.6544101, -0.5457051, -3.2455508, 9.7192886, -5.0302895
1891018615932125, 0, -0.7914161, 0.6629684, -0.4409204, -3.1278955, 8.8007986, -4.0532712
1891018625894125, 0, -0.6691360, 0.7032104, -0.3245586, -2.6649083, 8.0303508, -2.7669960
1891018635856125, 0, -0.4308254, 0.7026370, -0.1647751, -2.0469933, 7.2452335, -1.6253201
1891018645819125, 0, -0.1487820, 0.6518915, -0.0254926, -1.2693604, 6.4476920, -1.0609937
1891018655781125, 0, 0.1360827, 0.6114938, 0.0223865, -0.3866460, 6.0007214, -0.7267387
1891018665743125, 0, 0.3488768, 0.6513234, -0.0443302, 0.4981641, 5.8498352, -0.7488927
1891018675705125, 0, 0.4670838, 0.8128817, -0.1771322, 1.1701167, 5.7293358, -1.1554472
1891018685668125, 0, 0.4950718, 1.0099818, -0.3346472, 1.3275893, 5.3675381, -1.4253360
1891018695630125, 0, 0.4784116, 1.1469311, -0.4365885, 1.0797047, 4.9045509, -1.9670595
1891018705592125, 0, 0.4328854, 1.1773534, -0.4719436, 0.7502399, 4.5053311, -2.7095155
1891018715554125, 0, 0.3561035, 1.0918628, -0.4990135, 0.7018904, 4.1333546, -3.3946408
1891018725517125, 0, 0.2842831, 0.9129889, -0.5364591, 0.8985814, 3.6838394, -3.9866597
1891018735479125, 0, 0.2419492, 0.6994433, -0.5722976, 1.1398796, 3.3361125, -4.1839494
1891018745441125, 0, 0.2258733, 0.4664998, -0.5466378, 1.2287947, 3.1009515, -4.0633003
1891018755403125, 0, 0.2373545, 0.2636657, -0.5254055, 1.1431728, 3.0747560, -3.8645137
1891018765365125, 0, 0.2821822, 0.1843134, -0.5405559, 0.9071136, 3.1627730, -3.5022670
1891018775328125, 0, 0.3366781, 0.2595245, -0.5376453, 0.4090993, 3.3657509, -3.0654753
1891018785290125, 0, 0.3651900, 0.4595053, -0.4930861, -0.1901047, 3.6154317, -2.9726683
1891018795252125, 0, 0.3512981, 0.6728189, -0.4103196, -0.7045848, 3.8336778, -3.2359708
1891018805214125, 0, 0.2839697, 0.8143243, -0.3246172, -1.0591974, 4.3255550, -3.9654039
1891018815177125, 0, 0.1591508, 0.8651939, -0.2673412, -1.1945160, 4.8573990, -4.8508127
1891018825139125, 0, 0.0173662, 0.8503053, -0.2252283, -1.0901830, 5.1668056, -5.2337164
1891018835101125, 0, -0.0988627, 0.7832040, -0.1676031, -0.9767189, 5.5275554, -5.3269725
1891018845063125, 0, -0.1631921, 0.6881469, -0.1628209, -0.6406677, 5.9206380, -5.4173845
1891018855026125, 0, -0.1664838, 0.5562451, -0.2317065, -0.0255968, 6.2364812, -5.2337164
1891018864988125, 0, -0.0739831, 0.4607434, -0.3164672, 0.3523672, 6.6524661, -4.8178812
1891018874950125, 0, 0.0899200, 0.4372599, -0.3732897, 0.1044827, 7.1744307, -4.6322672
1891018884912125, 0, 0.2311312, 0.4793243, -0.3870729, -0.5396278, 7.6989400, -5.3503239
1891018894875125, 0, 0.2535167, 0.5213561, -0.3872803, -1.1635304, 8.3328717, -6.5583119
1891018904837125, 0, 0.1363981, 0.4610212, -0.3860228, -1.5751744, 9.0519763, -7.5417668
1891018914799125, 0, -0.0438516, 0.3668877, -0.3569198, -1.8679655, 9.4477533, -7.9505667
1891018924761125, 0, -0.2077910, 0.3893832, -0.2713793, -1.9725980, 9.8073056, -8.2209045
1891018934724125, 0, -0.3310775, 0.5084017, -0.1470864, -1.9294876, 10.3276236, -8.6973637
1891018944686125, 0, -0.4059579, 0.5132878, -0.0263775, -1.7339941, 10.4865930, -8.9685997
1891018954648125, 0, -0.3865956, 0.3424290, 0.0408990, -1.4732364, 10.7054379, -9.0290739
1891018964610125, 0, -0.2149741, 0.0937867, 0.0541735, -1.3632152, 11.1815977, -8.4961821
1891018974573125, 0, 0.0726031, -0.0758000, 0.0835024, -1.4820680, 11.3842763, -7.4709641
1891018984535125, 0, 0.3890375, -0.1037363, 0.1488118, -1.5748750, 11.3595776, -6.5672932
1891018994497125, 0, 0.6739355, 0.0024126, 0.1788331, -1.4052777, 11.2471614, -6.1879820
1891019004459125, 0, 0.9460970, 0.3902098, 0.2252470, -0.7333250, 11.2902718, -7.1624556
1891019014421125, 0, 0.7531664, 0.3897334, 0.3262740, 0.6131250, 11.9027980, -11.7974171
1891019024384125, 0, 0.1841310, -0.0599302, 0.3671492, 2.2909859, 11.8201698, -13.4671948
1891019034346125, 0, -0.2412835, -0.0959348, 0.2385662, 3.5063086, 11.6992213, -11.2844339
1891019044308125, 0, -0.4467373, -0.0558302, 0.0451451, 3.6730618, 12.4032074, -10.4726720
1891019054270125, 0, -0.4618145, -0.1355834, -0.0869919, 3.0865814, 11.6155453, -9.7083614
1891019064233125, 0, -0.2377702, -0.0878404, -0.1198628, 2.1737796, 10.3901935, -7.2268217
1891019074195125, 0, 0.2044370, 0.0236896, -0.0775342, 1.3046869, 9.5187057, -4.7638435
1891019084157125, 0, 0.8386294, 0.0664613, -0.0151952, 0.6762936, 9.3079440, -2.8111542
1891019094119125, 0, 1.5231808, 0.1906067, 0.0383295, 0.4803511, 9.1688832, -2.2188359
1891019104082125, 0, 1.8302300, 0.1541310, 0.0563743, 1.1033556, 8.9611153, -5.3206856
1891019114044125, 0, 1.6209474, 0.0881203, 0.0447805, 2.3861879, 8.7433182, -9.2357941
1891019124006125, 0, 0.9695467, 0.1071296, 0.0022014, 3.7393739, 8.6937712, -11.5320190
1891019133968125, 0, 0.0331726, 0.1545856, -0.0999831, 4.7368996, 9.1211325, -13.0030101
1891019143931000, 0, -0.8335904, 0.3529618, -0.3365927, 5.1284853, 9.6279785, -12.2313647
1891019153893000, 0, -1.3641012, 0.6333402, -0.5582641, 4.6613068, 9.7623990, -9.7396463
1891019163855000, 0, -1.5056562, 0.8328331, -0.6393762, 3.4438884, 9.3600357, -7.4670721
1891019173817000, 0, -1.3722281, 0.8923624, -0.6306941, 2.2276675, 8.8058881, -5.9351578
1891019183780000, 0, -1.0813787, 0.8015732, -0.5830999, 1.4518309, 8.5238745, -4.9786469
1891019193742000, 0, -0.7504580, 0.6222409, -0.5404717, 1.2356804, 8.4891467, -4.3933640
1891019203704000, 0, -0.4596395, 0.3537205, -0.4520109, 1.1901750, 8.6108437, -4.1189845
1891019213666000, 0, -0.2249966, 0.0542353, -0.3388186, 1.2106824, 8.6777545, -4.1776625
1891019223629000, 0, -0.0317470, -0.1274610, -0.2707660, 1.5067667, 8.4497786, -3.8684056
1891019233591000, 0, 0.1246237, -0.1700732, -0.2639645, 1.8459613, 7.8266245, -3.2825240
1891019243553000, 0, 0.2526517, -0.1704572, -0.2969867, 1.7753082, 7.0582722, -2.8503726
1891019253515000, 0, 0.3688734, -0.1916791, -0.3816669, 1.4682967, 6.1537033, -2.7291248
1891019263478000, 0, 0.4764044, -0.2288593, -0.4591889, 0.9111552, 5.2629057, -2.7271788
1891019273440000, 0, 0.5246254, -0.2803302, -0.5150378, 0.1471440, 4.4524910, -2.8029213
1891019283402000, 0, 0.4939543, -0.2682546, -0.5576742, -0.4408333, 3.8083804, -3.0747560
1891019293364000, 0, 0.3936868, -0.1189863, -0.6191341, -0.8012837, 3.2708482, -3.3103661
1891019303327000, 0, 0.2408334, 0.1176071, -0.6722493, -0.9481284, 2.9006680, -3.6040553
1891019313289000, 0, 0.0674928, 0.3439369, -0.6982795, -1.0820998, 2.5782385, -3.9420525
1891019323251000, 0, -0.0968504, 0.4623556, -0.7287239, -1.1141331, 2.3525079, -4.3339375
1891019333213000, 0, -0.2425005, 0.6024103, -0.8501513, -0.7942484, 2.3948698, -4.6529242
1891019343176000, 0, -0.3433622, 0.7909101, -0.9372777, -0.3722758, 2.6312283, -4.4767406
1891019353138000, 0, -0.4466574, 0.8558885, -0.8624463, -0.3284171, 2.6319768, -4.5438011
1891019363100000, 0, -0.5614356, 0.6061397, -0.6668513, -0.4204756, 2.6003925, -5.2423984
1891019373062000, 0, -0.5890651, 0.2651313, -0.4733361, -0.4116440, 2.4671695, -5.6110817
1891019383024000, 0, -0.4678130, 0.0319566, -0.3310546, -0.3794609, 2.4520509, -4.6015810
1891019392987000, 0, -0.2454172, -0.0321292, -0.2547524, -0.3135979, 2.8831544, -3.8014948
1891019402949000, 0, -0.0287371, 0.0464791, -0.2127836, -0.2134561, 3.4299673, -3.6793488
1891019412911000, 0, 0.0970909, 0.1765378, -0.1538162, -0.2182462, 4.0829095, -4.1061113
1891019422873000, 0, 0.0680882, 0.2329145, -0.1201831, -0.1124162, 4.7551616, -5.2200948
1891019432836000, 0, -0.0823782, 0.2206559, -0.1396721, 0.3104544, 5.4567526, -6.4375131
1891019442798000, 0, -0.2072680, 0.2020937, -0.2369622, 0.7961943, 6.0311082, -6.6425867
1891019452760000, 0, -0.1925828, 0.2030708, -0.3342113, 1.0566527, 6.5156506, -6.1577449
1891019462722000, 0, -0.0529578, 0.2205492, -0.3232358, 0.7771838, 6.8292485, -5.6253021
1891019472685000, 0, 0.1270056, 0.2104702, -0.2040386, 0.2695894, 6.9603758, -5.8630078
1891019482647000, 0, 0.2093569, 0.0230774, -0.0966458, 0.1830693, 7.5332346, -7.4321947
1891019492609000, 0, 0.1965386, -0.2275285, -0.0863237, 0.7668553, 8.4306184, -8.7901707
1891019502571000, 0, 0.2041603, -0.2918819, -0.1090754, 1.2645703, 8.9829698, -8.4077161
1891019512534000, 0, 0.2523332, -0.1924464, -0.1087979, 1.1675720, 9.2013657, -7.7038797
1891019522496000, 0, 0.2696030, -0.0427792, -0.0543964, 0.8913963, 9.1991203, -7.9929286
1891019532458000, 0, 0.1695832, 0.0002836, -0.0058238, 0.8699908, 9.4492502, -9.0893985
1891019542420000, 0, 0.0636282, -0.0378038, -0.0504525, 1.0829979, 9.8959213, -9.1892409
1891019552383000, 0, 0.0611643, -0.0652504, -0.1517616, 1.0804532, 10.3285217, -8.1616278
1891019562345000, 0, 0.1218769, -0.0636346, -0.2295631, 0.5730084, 10.6359824, -7.2390962
1891019572307000, 0, 0.1825525, -0.0394310, -0.2576912, -0.1886078, 10.8030350, -6.6901877
1891019582269000, 0, 0.2386965, 0.0829295, -0.2755943, -1.0053094, 11.0271190, -6.5482828
1891019592232000, 0, 0.0352549, 0.2348056, -0.2803781, -1.5778688, 11.5076198, -9.8053596
1891019602194000, 0, -0.6075975, 0.2229052, -0.2291019, -1.3861176, 12.0113223, -15.0158743
1891019612156000, 0, -0.8503252, 0.5110209, -0.0979351, -0.9639954, 11.3609248, -10.6023024
1891019622118000, 0, -0.7717116, 0.4990135, 0.0724622, -1.2317885, 10.9157506, -7.4531511
1891019632081000, 0, -0.4799719, 0.2112502, 0.1912253, -1.0463242, 11.0534642, -7.4175252
1891019642043000, 0, -0.1028595, -0.0110537, 0.1727715, -0.2600093, 11.4460977, -5.8597147
1891019652005000, 0, 0.2063806, -0.2206650, 0.0800482, 0.1347198, 11.7487683, -5.4296590
1891019661967000, 0, 0.4663174, -0.2598247, -0.0678752, -0.2658472, 11.6095578, -5.4744159
1891019671930000, 0, 0.5738007, -0.3126282, -0.1806718, -1.1732602, 11.7231715, -6.3981450
1891019681892000, 0, 0.6121864, -0.2645885, -0.1568748, -2.3709196, 11.4760355, -6.8499055
1891019691854000, 0, 0.4857888, -0.1873520, -0.0782495, -2.8181895, 10.7590265, -8.3384102
1891019701816000, 0, 0.2886182, -0.1135447, -0.0656712, -2.2369482, 10.1289867, -9.4726016
1891019711779000, 0, 0.1804385, -0.0888614, -0.1141388, -1.5684384, 9.8644867, -8.7957092
1891019721741000, 0, 0.1635567, -0.1689224, -0.1930842, -1.4208453, 9.4601775, -8.0989082
1891019731703000, 0, 0.1326904, -0.2813020, -0.2865471, -1.6284636, 9.2537567, -8.1351329
1891019741665000, 0, 0.0291398, -0.2874653, -0.3971447, -1.8965561, 9.2757610, -8.1518980
1891019751627000, 0, -0.0919379, -0.1485839, -0.4482747, -2.5896149, 9.0944879, -7.5339830
1891019761590000, 0, -0.1978710, 0.0500456, -0.4022161, -3.5829492, 8.7549939, -6.9304381
1891019771552000, 0, -0.2950937, 0.2090134, -0.2808349, -4.3325903, 8.4547183, -6.5631020
1891019781514000, 0, -0.3742546, 0.2806428, -0.1232375, -4.4933560, 8.1831830, -6.1257115
1891019791476000, 0, -0.4071976, 0.2947398, 0.0137917, -4.0421942, 7.9725710, -5.5470149
1891019801439000, 0, -0.3871011, 0.2942899, 0.1395065, -3.3784744, 7.6737923, -4.7434859
1891019811401000, 0, -0.3310933, 0.3153348, 0.2694392, -2.7482849, 7.2536160, -3.9637573
1891019821363000, 0, -0.2420371, 0.3509764, 0.4066053, -2.2032683, 6.7383875, -3.2332764
1891019831325000, 0, -0.1310816, 0.3602162, 0.5335587, -1.7182768, 6.1902274, -2.7379564
1891019841288000, 0, 0.0060853, 0.3239847, 0.6244255, -1.2174184, 5.6353313, -2.4367827
1891019851250000, 0, 0.1614912, 0.2661292, 0.6608725, -0.6164182, 5.1850676, -2.3478676
1891019861212000, 0, 0.3018608, 0.2062858, 0.6522436, 0.0369731, 4.6622049, -2.4411237
1891019871174000, 0, 0.3939148, 0.1619460, 0.6122567, 0.5551955, 4.2704695, -2.6755362
1891019881137000, 0, 0.4107569, 0.1155101, 0.5422398, 0.8873547, 3.8919067, -3.2106734
1891019891099000, 0, 0.3458067, 0.0498435, 0.4649882, 1.0572514, 3.5732195, -3.8630168
1891019901061000, 0, 0.2288066, 0.0333540, 0.3823274, 1.2133768, 3.3642540, -4.3111848
1891019911023000, 0, 0.1037914, 0.1347498, 0.2813201, 1.4911990, 3.0234128, -4.2677751
1891019920986000, 0, -0.0181260, 0.2316692, 0.1836913, 1.5940352, 2.7514284, -4.1520657
1891019930948000, 0, -0.1189248, 0.2238216, 0.0783686, 1.4328204, 2.5942552, -4.3721082
1891019940910000, 0, -0.1673171, 0.1430988, -0.0267160, 1.1389815, 2.5899142, -4.3568399
1891019950872000, 0, -0.1599766, 0.1310901, -0.1223592, 0.8201445, 2.6578729, -3.7973035
1891019960835000, 0, -0.1800105, 0.1693925, -0.1977962, 0.4447252, 2.8210336, -3.8246965
1891019970797000, 0, -0.2524059, 0.2235079, -0.2369697, 0.0378712, 3.0614337, -4.4722499
1891019980759000, 0, -0.3462647, 0.2766375, -0.2405095, -0.3936813, 3.4494269, -4.8178812
1891019990721000, 0, -0.4317706, 0.3161092, -0.2114510, -0.7041357, 3.9969882, -5.0624725
1891020000684000, 0, -0.5069402, 0.3349554, -0.1811298, -0.8057744, 4.6068201, -5.3170930
1891020010646000, 0, -0.5719844, 0.2935754, -0.1453394, -0.8699908, 5.3510724, -5.4561539
1891020020608000, 0, -0.5891040, 0.2363310, -0.1036809, -0.9297166, 6.0152412, -5.1500404
1891020030570000, 0, -0.5329398, 0.1919026, -0.0450705, -0.9918375, 6.5738795, -4.6372069
1891020040533000, 0, -0.4820415, 0.1017722, 0.0344565, -1.0339000, 7.1455408, -5.2350636
1891020050495000, 0, -0.5243620, -0.0318059, 0.1086184, -0.7503896, 7.8058177, -6.7392856
1891020060457000, 0, -0.5999346, -0.1762608, 0.1358574, -0.0487985, 8.3640070, -7.6040373
1891020070419000, 0, -0.5514567, -0.3162938, 0.1027509, 0.4715195, 8.8307364, -7.0561766
1891020080382000, 0, -0.3490240, -0.4439458, 0.0402561, 0.3308121, 9.2673784, -6.0582019
1891020090344000, 0, -0.0862790, -0.5003433, -0.0285648, -0.2615062, 9.7990727, -5.8663010
1891020100306000, 0, 0.0802195, -0.5155443, -0.0527500, -1.1633807, 10.5277574, -6.6186365
1891020110268000, 0, 0.1577963, -0.4699225, -0.0394281, -1.8233583, 11.0790610, -7.1085677
1891020120231000, 0, 0.2449743, -0.3529096, -0.0396968, -2.0669019, 11.7502652, -6.4984364
1891020130193000, 0, 0.3739390, -0.2322199, -0.0641686, -2.2240750, 12.6319318, -5.9350081
1891020140155375, 0, 0.5217660, -0.1187674, -0.0512206, -2.4354355, 12.9652885, -5.6968533
1891020150117375, 0, 0.6319479, 0.0478876, 0.0030749, -2.6177563, 13.0594427, -6.2086391
1891020160080375, 0, 0.2063247, -0.0426045, 0.0807031, -2.0833676, 13.6207755, -12.0258421
1891020170042375, 0, -0.2340293, 0.0059564, 0.0687860, 0.0020956, 13.6194283, -12.8323650
1891020180004375, 0, -0.2838807, 0.1964329, -0.0885666, 2.0163071, 13.4154025, -7.2712793
1891020189966375, 0, -0.2053188, 0.0841199, -0.2572182, 2.4789949, 13.1964079, -8.1297441
1891020199928375, 0, 0.0112324, 0.0122668, -0.3673452, 2.0061282, 12.4361389, -7.1935909
1891020209891375, 0, 0.2407780, -0.0743054, -0.3649372, 1.1084450, 11.8453175, -5.9264758
1891020219853375, 0, 0.5574798, -0.1442752, -0.2674019, -0.0751437, 11.3232033, -5.2287767
1891020229815375, 0, 0.9759647, -0.0980563, -0.0599555, -1.2910652, 10.7452551, -3.6495607
1891020239777375, 0, 1.2776632, -0.0443877, 0.1858458, -1.7280066, 10.2581680, -4.3471101
1891020249740375, 0, 1.1690049, -0.0535271, 0.3467220, -0.8117619, 10.0243542, -8.1331870
1891020259702375, 0, 0.7655400, 0.0710036, 0.4087220, 0.9469308, 9.7368022, -10.8717421
1891020269664375, 0, 0.2436103, 0.2785722, 0.4016449, 2.6286836, 9.3985057, -11.6242273
1891020279626375, 0, -0.2725503, 0.4642814, 0.3019140, 3.9703436, 9.1519684, -11.4422058
1891020289589375, 0, -0.7396021, 0.5214909, 0.0843389, 4.8332991, 9.3561438, -11.0527158
1891020299551375, 0, -1.1203938, 0.4790867, -0.1884999, 4.6940886, 9.6044774, -10.6181694
1891020309513375, 0, -1.3354090, 0.5206770, -0.3308733, 3.4164954, 9.3359358, -9.4420651
1891020319475375, 0, -1.3545312, 0.6447175, -0.3136117, 1.7561481, 8.8178632, -7.5335339
1891020329438375, 0, -1.2402579, 0.7356000, -0.1944401, 0.4917274, 8.3695454, -6.3241988
1891020339400375, 0, -1.0689121, 0.7085111, 0.0275160, -0.3230283, 8.2068338, -5.4824991
1891020349362375, 0, -0.8257919, 0.5526789, 0.3188390, -0.6173163, 8.0218185, -4.5455974
1891020359324375, 0, -0.5080270, 0.2710307, 0.5982946, -0.3606001, 7.5473053, -3.6080969
1891020369287375, 0, -0.1439015, 0.0015002, 0.7675499, 0.6001021, 7.4997043, -2.8307634
1891020379249375, 0, 0.1722317, -0.1555427, 0.7635485, 1.8826350, 7.5869728, -2.1824615
1891020389211375, 0, 0.3702558, -0.2678432, 0.6443414, 2.7806177, 7.4395294, -2.1173470
1891020399173375, 0, 0.4737875, -0.3922506, 0.5225064, 2.8418404, 7.3313045, -2.3879842
1891020409136375, 0, 0.5312948, -0.5364227, 0.4363483, 2.3923251, 7.0105215, -2.4635770
1891020419098375, 0, 0.5572936, -0.6605697, 0.3755808, 1.8449135, 6.5424449, -2.6822722
1891020429060375, 0, 0.5529606, -0.7213896, 0.3128410, 1.4765295, 5.7432568, -2.8500732
1891020439022375, 0, 0.5271304, -0.7191616, 0.2569200, 1.0440788, 4.8960187, -2.9136909
1891020448985375, 0, 0.4796222, -0.6916485, 0.2015773, 0.4543053, 4.3155258, -2.8785141
1891020458947375, 0, 0.4127010, -0.6125377, 0.1169895, 0.1362167, 3.8044885, -2.9982651
1891020468909375, 0, 0.3297025, -0.4955179, 0.0293827, -0.0026944, 3.1681618, -3.2018417
1891020478871375, 0, 0.2410257, -0.3702875, -0.0416116, -0.1627116, 2.6385631, -3.4018259
1891020488834375, 0, 0.1790555, -0.2502969, -0.1078815, -0.2809657, 2.2775139, -3.3168027
1891020498796375, 0, 0.1554383, -0.1326156, -0.1532375, -0.4969666, 2.0237915, -3.0743069
1891020508758375, 0, 0.1507339, -0.0295494, -0.1583366, -0.7244934, 1.8254539, -3.0409264
1891020518720375, 0, 0.1155135, 0.0097235, -0.1009261, -0.9291179, 1.8748512, -3.4431400
1891020528683375, 0, 0.0537660, 0.0455172, -0.0591051, -0.7626640, 2.3840923, -4.1414378
1891020538645375, 0, -0.0099586, 0.1143908, -0.0356608, -0.2956352, 3.0436208, -4.4950026
1891020548607375, 0, -0.0849183, 0.2280491, -0.0025303, 0.0886157, 3.5588493, -4.8383885
1891020558569375, 0, -0.1611924, 0.3505862, 0.0084638, 0.5851332, 4.0806642, -5.2768268
1891020568532375, 0, -0.1945146, 0.4144483, 0.0125800, 1.0157877, 4.5958928, -5.5425243
1891020578494375, 0, -0.1672044, 0.4295650, 0.0382979, 1.3284874, 4.9868797, -5.6517970
1891020588456375, 0, -0.0882731, 0.3941420, 0.0375945, 1.7817448, 5.3928355, -5.9430913
1891020598418375, 0, 0.0433368, 0.3065426, 0.0035987, 2.1547691, 6.1918739, -6.2638742
1891020608381375, 0, 0.1723467, 0.1774890, -0.0132884, 2.1359084, 6.8391280, -6.9963011
1891020618343375, 0, 0.2757938, 0.0361157, 0.0085261, 1.8793419, 7.3598950, -7.6452017
1891020628305375, 0, 0.3526084, -0.1371480, 0.0643638, 1.5166461, 7.9528120, -7.4164774
1891020638267375, 0, 0.4084389, -0.3049370, 0.1800672, 1.2079880, 8.5132466, -7.5278458
1891020648230375, 0, 0.4205675, -0.3394526, 0.3446147, 1.2082874, 8.7530479, -7.9071570
1891020658192375, 0, 0.2869226, -0.3016712, 0.4699792, 1.7762064, 9.0850575, -9.2521101
1891020668154375, 0, 0.1529544, -0.2441181, 0.4755271, 2.5727000, 9.6472884, -9.0367081
1891020678116375, 0, 0.0943015, -0.2370320, 0.3471383, 2.8539651, 10.3334615, -7.7716887
1891020688079375, 0, 0.0670922, -0.2317198, 0.1188252, 2.3333478, 11.0801088, -7.2340068
1891020698041375, 0, 0.0155419, -0.0661143, -0.0865362, 1.0979668, 11.7361945, -6.7177304
1891020708003375, 0, -0.2563040, 0.2398784, -0.1836100, -0.3917354, 11.9152222, -8.6668272
1891020717965375, 0, -1.0638479, 0.3130759, -0.1533515, -0.9773177, 12.2131027, -15.9843604
1891020727928375, 0, -1.5361990, 0.5889413, -0.1134563, 0.5424719, 12.2794148, -14.0473883
1891020737890375, 0, -1.4179116, 0.7301991, -0.0597169, 1.8893710, 11.4817236, -6.6117508
1891020747852375, 0, -0.9230586, 0.4220706, 0.0301092, 2.1427940, 10.9247319, -5.6546411
1891020757814375, 0, -0.2344130, 0.0886710, 0.0125323, 2.4563919, 11.6679364, -4.2189766
1891020767777375, 0, 0.4026912, -0.1855576, -0.1308086, 2.8922855, 12.8458369, -3.3608112
1891020777739375, 0, 0.7410749, -0.4067291, -0.2871705, 2.6704468, 13.3279843, -5.2233879
1891020787701375, 0, 0.7488213, -0.5263379, -0.3519668, 1.6196320, 13.5011742, -7.3307057
1891020797663375, 0, 0.6886466, -0.4633344, -0.3379272, 0.1062790, 13.4631532, -7.1013826
1891020807626375, 0, 0.6047330, -0.4403289, -0.3039359, -1.1563454, 13.2170650, -7.4652759
1891020817588375, 0, 0.4980457, -0.4433205, -0.2742702, -1.8302440, 12.6359734, -8.1183678
1891020827550375, 0, 0.3423760, -0.4104533, -0.2343755, -1.9399658, 11.9873721, -8.5352509
1891020837512375, 0, 0.2385564, -0.3099089, -0.2127434, -1.7142352, 11.2291988, -8.0748083
1891020847475375, 0, 0.1816084, -0.2868970, -0.2351350, -1.5715819, 10.7260950, -7.6998381
1891020857437375, 0, 0.1226751, -0.3515804, -0.2722968, -1.7063017, 10.4336032, -7.8859012
1891020867399375, 0, 0.0387101, -0.4014478, -0.2707599, -2.1926404, 10.2503842, -7.7327696
1891020877361375, 0, -0.0791894, -0.3693128, -0.2125016, -2.7366092, 9.9492105, -7.5934094
1891020887323375, 0, -0.2289008, -0.3112367, -0.1219507, -3.0208681, 9.6618082, -7.5007521
1891020897286375, 0, -0.3319998, -0.2653899, -0.0224502, -2.9035121, 9.2428294, -6.8184709
1891020907248375, 0, -0.3555032, -0.2944404, 0.0699631, -2.5486002, 8.8066365, -5.7697517
1891020917210375, 0, -0.3157593, -0.3907866, 0.1288728, -2.1899460, 8.4822610, -5.0278944
1891020927172375, 0, -0.2279903, -0.4924566, 0.1944938, -1.8803897, 7.9601468, -4.3084904
1891020937135375, 0, -0.0828222, -0.5305310, 0.2690592, -1.7030086, 7.1699400, -3.4428406
1891020947097375, 0, 0.1211975, -0.5041556, 0.3321867, -1.4874568, 6.4464944, -2.4828868
1891020957059375, 0, 0.3443044, -0.4624579, 0.3641143, -1.2579840, 5.9326131, -1.9230510
1891020967021375, 0, 0.5324346, -0.4184601, 0.3360936, -0.9434880, 5.5886284, -1.8619780
1891020976984375, 0, 0.6200864, -0.3781284, 0.2474423, -0.6646179, 5.3015254, -2.2327570
1891020986946375, 0, 0.6044462, -0.3057154, 0.1546506, -0.5484595, 5.0005014, -2.7324179
1891020996908375, 0, 0.4950058, -0.1876905, 0.1099918, -0.7262897, 4.5854146, -3.1078372
1891021006870375, 0, 0.3199871, -0.0345678, 0.1334566, -0.9774673, 4.0697369, -3.4492772
1891021016833375, 0, 0.1038470, 0.1371123, 0.1888410, -0.9639954, 3.6598892, -3.8293369
1891021026795375, 0, -0.1294549, 0.2759935, 0.2236190, -0.5658234, 3.3711397, -4.1324565
1891021036757375, 0, -0.3212875, 0.3662821, 0.1966015, 0.1130150, 3.2013927, -4.2302032
1891021046719375, 0, -0.4213512, 0.4000483, 0.1212737, 0.7098239, 3.1900163, -3.9685474
1891021056682375, 0, -0.4288211, 0.3933215, 0.0276929, 0.9759705, 3.2084280, -3.5311569
1891021066644375, 0, -0.3861810, 0.3810248, -0.0458008, 0.8587642, 3.1663655, -3.3006363
1891021076606375, 0, -0.3431118, 0.3646137, -0.0584945, 0.4737648, 3.1716046, -3.3913477
1891021086568375, 0, -0.3304203, 0.3362816, 0.0125073, 0.1130150, 3.1835797, -3.7160225
1891021096531375, 0, -0.3291723, 0.2857516, 0.1320457, 0.0525407, 3.0898746, -3.9305264
1891021106493375, 0, -0.2728574, 0.2304801, 0.1956883, 0.2839595, 3.5345998, -3.9537282
1891021116455375, 0, -0.1056670, 0.1788547, 0.1498888, 0.5469626, 4.3881248, -3.6586917
1891021126417375, 0, 0.1320028, 0.1525714, 0.0345785, 0.5674699, 5.0635204, -3.4100587
1891021136380375, 0, 0.3370145, 0.1323602, -0.0972251, 0.4228706, 5.4654346, -3.7160225
1891021146342375, 0, 0.4256669, 0.0770114, -0.1933186, 0.3270699, 5.6540424, -4.5183540
1891021156304375, 0, 0.3899014, -0.0010354, -0.2394424, 0.3164420, 5.7679555, -5.4039125
1891021166266375, 0, 0.2664360, -0.0273757, -0.2757370, 0.4644841, 6.0619441, -6.1421773
1891021176229375, 0, 0.1208918, 0.0371500, -0.3211498, 0.5803432, 6.3812302, -6.8292485
1891021186191375, 0, -0.0464546, 0.0620522, -0.3616085, 0.4339476, 6.5750771, -7.8267741
1891021196153375, 0, -0.2278755, -0.0429491, -0.3684971, 0.0293390, 6.8358348, -8.5800078
1891021206115375, 0, -0.3708055, -0.1863598, -0.3327394, -0.5340894, 6.9750453, -8.3970882
1891021216078375, 0, -0.4080906, -0.2318780, -0.2672277, -1.2383748, 7.1079689, -7.7823166
1891021226040375, 0, -0.3705679, -0.2168087, -0.1669336, -2.0007394, 7.7151064, -7.5925113
1891021236002375, 0, -0.3107952, -0.1894658, -0.0488354, -2.4701633, 8.7428691, -7.9974193
1891021245964375, 0, -0.2598638, -0.1586240, 0.0614511, -2.5801845, 9.6445940, -8.1346838
1891021255927375, 0, -0.1723662, -0.1252929, 0.1402295, -2.4312442, 10.2330203, -7.6719960
1891021265889375, 0, -0.0222121, -0.1115092, 0.1928784, -2.2522165, 10.9618547, -7.1295241
1891021275851375, 0, 0.1704863, -0.1026835, 0.2374988, -2.1558170, 11.9171681, -6.6461792
1891021285813375, 0, 0.4088711, -0.0277432, 0.2836804, -2.0273840, 12.5867258, -6.2691133
1891021295776375, 0, 0.5179510, 0.1136387, 0.2821577, -1.5055692, 13.4525253, -9.1304132
1891021305738375, 0, 0.1554271, -0.0883802, 0.2227577, 0.0017963, 14.1219333, -12.9100534
1891021315700375, 0, -0.2519681, -0.1242205, 0.1004278, 1.4931450, 13.2922087, -10.1939516
1891021325662375, 0, -0.4993432, 0.0259397, -0.1277124, 2.0284319, 13.5010245, -9.0802675
1891021335625375, 0, -0.6412029, -0.0098907, -0.3541011, 1.8172211, 13.7984560, -9.6092674
1891021345587375, 0, -0.5805848, -0.0107565, -0.4096562, 0.9842033, 12.7590175, -8.2387175
1891021355549375, 0, -0.3234076, 0.0229533, -0.2786095, -0.0193098, 11.6870966, -6.2089384
1891021365511375, 0, 0.0690273, -0.0388411, -0.0368914, -0.5842351, 10.7707022, -4.9078441
1891021375474375, 0, 0.5263956, -0.1822609, 0.1851435, -0.5292993, 10.2884052, -4.1123982
1891021385436375, 0, 0.9945887, -0.2197555, 0.2880041, 0.1579216, 10.1146165, -4.0179446
1891021395398375, 0, 1.2170579, -0.2712600, 0.2568336, 1.2458592, 10.3003802, -5.8408539
1891021405360375, 0, 1.0542072, -0.3306791, 0.1804899, 2.3294559, 10.0993483, -8.6090474
1891021415323375, 0, 0.5453864, -0.2696813, 0.1105185, 3.1784903, 9.6359120, -10.5835913
1891021425285375, 0, -0.1524015, -0.1464629, 0.0621153, 3.5651363, 9.2163345, -11.2227621
1891021435247375, 0, -0.8565762, -0.0739427, 0.0456048, 3.5028658, 8.9103708, -10.9733807
1891021445209375, 0, -1.3939092, -0.0042744, 0.0212502, 3.3684453, 8.9808742, -9.9502583
1891021455172375, 0, -1.6538537, 0.0597544, 0.0021675, 3.0936168, 9.0973320, -8.1655197
1891021465134375, 0, -1.6574324, 0.0748670, 0.0166322, 2.5737479, 9.0016809, -6.4140120
1891021475096375, 0, -1.4750304, -0.0214092, 0.0933627, 1.8886226, 8.8530400, -5.1112711
1891021485058375, 0, -1.1768919, -0.2159549, 0.2243830, 1.2717554, 8.8986951, -4.0442899
1891021495021375, 0, -0.7899529, -0.3974177, 0.3466845, 0.9879456, 8.9516849, -3.1458582
1891021504983375, 0, -0.3533466, -0.5725448, 0.4169842, 1.0021660, 8.7738547, -2.2752686
1891021514945375, 0, 0.0710185, -0.7293091, 0.4674404, 1.1270064, 8.6597919, -1.9112256
1891021524907375, 0, 0.4368143, -0.8472751, 0.4859798, 1.3091776, 8.4794170, -1.8592836
1891021534870375, 0, 0.7178149, -0.9285676, 0.4426169, 1.4587166, 8.1587837, -1.8494041
1891021544832375, 0, 0.9115814, -1.0284593, 0.3351396, 1.4163547, 7.6755885, -2.0535796
1891021554794375, 0, 1.0340098, -1.1159865, 0.2024889, 1.1798465, 6.9683093, -2.2282663
1891021564756375, 0, 1.0817523, -1.1239892, 0.0607233, 0.8087682, 6.2189676, -2.3421794
1891021574719375, 0, 1.0440958, -1.0327518, -0.0853474, 0.3703299, 5.4125945, -2.7096652
1891021584681375, 0, 0.9111971, -0.8653087, -0.2004263, -0.1535806, 4.6026288, -3.1763947
1891021594643375, 0, 0.7162159, -0.6002062, -0.2796042, -0.5474117, 4.0703357, -3.4747243
1891021604605375, 0, 0.4972020, -0.2809038, -0.3401781, -0.8996292, 3.4371524, -3.5158887
1891021614568375, 0, 0.2827316, -0.0392526, -0.3569110, -1.4673985, 2.7719357, -3.8841229
1891021624530375, 0, 0.0883094, 0.0524581, -0.2925842, -2.1038750, 2.2123993, -4.4406656
1891021634492375, 0, -0.0626178, 0.0810459, -0.1710466, -2.4798930, 1.7787511, -4.6261299
1891021644454375, 0, -0.1484385, 0.0977553, -0.0491004, -2.4867787, 1.5413448, -4.4563829
1891021654417375, 0, -0.1631120, 0.1274730, 0.0332432, -2.2513184, 1.5572118, -4.1450304
1891021664379375, 0, -0.1520937, 0.1011501, 0.0659002, -1.6777112, 1.6575032, -4.0745270
1891021674341375, 0, -0.1524223, 0.0650392, 0.0162573, -0.9259744, 2.0760329, -4.4685077
1891021684303375, 0, -0.1879635, 0.1141532, -0.1035389, -0.3534151, 2.7393036, -4.7699808
1891021694266375, 0, -0.2773938, 0.2253141, -0.2497491, -0.1270857, 3.2696507, -5.1849179
1891021704228375, 0, -0.4532953, 0.3324538, -0.3398122, -0.1766327, 3.7651204, -5.9782681
1891021714190375, 0, -0.6731238, 0.4223054, -0.3448197, -0.2276765, 4.1957748, -6.6942293
1891021724152375, 0, -0.8399733, 0.5048003, -0.3168317, -0.2052232, 4.6354106, -6.6913852
1891021734115375, 0, -0.9235798, 0.5406776, -0.2808482, -0.0700543, 5.1683025, -6.5349605
1891021744077375, 0, -0.9136326, 0.5858243, -0.3001425, 0.1860631, 6.0080562, -6.2748015
1891021754039375, 0, -0.8220608, 0.6585044, -0.3645875, 0.3245251, 7.0003427, -5.6586827
1891021764001375, 0, -0.6962757, 0.7118411, -0.4336963, 0.1152603, 7.9369450, -5.5712645
1891021773963375, 0, -0.5983005, 0.7308210, -0.4656849, -0.1245410, 8.6496130, -6.2595332
1891021783926375, 0, -0.5795702, 0.7447924, -0.4232919, -0.3540138, 9.2425301, -7.3336995
1891021793888375, 0, -0.5944564, 0.7622686, -0.2881367, -0.4466711, 9.5079282, -7.4818913
1891021803850375, 0, -0.5741621, 0.7404256, -0.1210351, -0.1378633, 9.7007272, -7.0576735
1891021813812375, 0, -0.4720642, 0.6451979, -0.0044978, 0.5785469, 10.1167122, -6.7406328
1891021823775375, 0, -0.3672726, 0.4494793, 0.0081823, 1.6344511, 10.7621700, -7.4363860
1891021833737375, 0, -0.3475827, 0.2061558, -0.0798325, 2.7164012, 11.3892160, -8.2750919
1891021843699375, 0, -0.2811116, 0.0847620, -0.2274608, 3.1103819, 11.7415833, -7.1781729
1891021853661375, 0, -0.1446365, 0.0574918, -0.3416841, 2.5023463, 11.8969601, -5.7020924
1891021863624375, 0, 0.0088401, 0.0247959, -0.3869232, 1.2693604, 12.1095181, -5.1699490
1891021873586375, 0, 0.1850047, 0.0686139, -0.3912133, 0.1389111, 12.2413939, -5.6223083
1891021883548375, 0, -0.0637273, -0.0278631, -0.3857807, -0.4468208, 12.8461363, -10.7457042
1891021893510375, 0, -0.6083552, -0.0030110, -0.3665468, -0.3013234, 13.2402667, -12.3813528
1891021903473375, 0, -0.7218407, 0.3797574, -0.2748500, -0.6331833, 12.5771457, -6.2520488
1891021913435375, 0, -0.6304251, 0.3878441, -0.1228058, -1.2900174, 12.3315065, -6.2501028
1891021923397375, 0, -0.4189917, 0.2040176, 0.0424657, -1.2614268, 12.2032233, -6.3143193
1891021933359375, 0, -0.0943683, 0.0722185, 0.0905882, -0.5498067, 12.4056024, -3.6562967
1891021943322375, 0, 0.3053333, -0.0456436, 0.0216345, -0.0580792, 12.6407634, -2.5692572
1891021953284375, 0, 0.6772520, -0.1075406, -0.0914175, -0.2401007, 12.9043652, -3.0183234
1891021963246375, 0, 0.7959645, -0.1876961, -0.1545848, -0.7572752, 12.7823689, -4.5322751
1891021973208375, 0, 0.7582302, -0.1811320, -0.1676335, -1.3004956, 12.0710481, -5.3067645
1891021983171375, 0, 0.6871970, -0.1514857, -0.1697912, -1.6982185, 11.4935490, -5.7414606
1891021993133375, 0, 0.5865013, -0.1580352, -0.1531704, -2.0169058, 10.9446405, -6.6651897
1891022003095375, 0, 0.4528247, -0.1249694, -0.1313881, -2.0639081, 10.4764142, -6.9410660
1891022013057375, 0, 0.2981054, -0.0612775, -0.1167285, -1.8618283, 9.9674725, -6.7500632
1891022023020375, 0, 0.1512926, -0.0142437, -0.1273039, -1.6760646, 9.5393628, -6.7415309
1891022032982375, 0, 0.0498269, -0.0025801, -0.1683488, -1.6295114, 9.3750046, -6.5125072
1891022042944375, 0, -0.0208155, -0.0088531, -0.2101807, -1.9005977, 9.2832454, -6.1920236
1891022052906375, 0, -0.0806874, 0.0064883, -0.2002095, -2.3905289, 9.0617061, -5.9664427
1891022062869375, 0, -0.1601319, 0.0795771, -0.1427942, -2.8139983, 8.8004993, -5.9332118
1891022072831375, 0, -0.2274744, 0.1684306, -0.0693474, -2.9648845, 8.6650310, -5.6782919
1891022082793375, 0, -0.2600998, 0.2116678, -0.0001294, -2.9355455, 8.6467690, -5.2763777
1891022092755375, 0, -0.2530275, 0.1986372, 0.0616644, -2.7283763, 8.5630930, -4.8639853
1891022102718375, 0, -0.2107335, 0.1633759, 0.1143031, -2.4090903, 8.4169968, -4.4201582
1891022112680375, 0, -0.1238168, 0.1595761, 0.1776443, -2.1469853, 8.0463675, -3.8724472
1891022122642375, 0, -0.0291084, 0.1421470, 0.2490894, -1.9908600, 7.5443115, -3.4316139
1891022132604375, 0, 0.0557317, 0.1152781, 0.3264471, -1.8341359, 7.0114197, -3.2482452
1891022142566792, 0, 0.1413840, 0.1034079, 0.3987229, -1.5774197, 6.3423111, -3.0249097
1891022152528792, 0, 0.2235090, 0.0684930, 0.4399734, -1.2502002, 5.7028409, -2.9491672
1891022162490792, 0, 0.2801672, 0.0409248, 0.4612190, -0.9093590, 5.1440529, -2.9496162
1891022172452792, 0, 0.2842980, 0.0176022, 0.4784358, -0.6466553, 4.6511279, -3.1162198
1891022182415792, 0, 0.2091479, -0.0183476, 0.4909865, -0.3745212, 4.2933719, -3.5366954
1891022192377792, 0, 0.0869011, -0.0208565, 0.4718517, -0.0203577, 4.1303609, -3.9221439
1891022202339792, 0, -0.0355441, 0.0078260, 0.4357209, 0.3252736, 4.0233334, -3.9338196
1891022212301792, 0, -0.1327381, 0.0412345, 0.3810970, 0.6444099, 3.9188507, -3.7869749
1891022222264792, 0, -0.1995035, 0.0655055, 0.3076811, 0.8910970, 3.9041812, -3.6730618
1891022232226792, 0, -0.2395950, 0.0879727, 0.2289693, 0.9945319, 3.8344263, -3.6139348
1891022242188792, 0, -0.2643177, 0.1117417, 0.1524633, 0.9533675, 3.7673657, -3.5314563
1891022252150792, 0, -0.2723708, 0.1286903, 0.0842009, 0.8240364, 3.7706589, -3.4594560
1891022262113792, 0, -0.2708041, 0.1402527, 0.0304511, 0.6771918, 3.8474492, -3.4302667
1891022272075792, 0, -0.2768369, 0.1477085, -0.0008860, 0.4592450, 3.9730380, -3.5410364
1891022282037792, 0, -0.2996061, 0.1524737, -0.0038871, 0.2610571, 4.1246727, -3.7350330
1891022291999792, 0, -0.3363905, 0.1579393, 0.0106974, 0.1818718, 4.4367737, -4.0249800
1891022301962792, 0, -0.3676760, 0.1843762, 0.0313166, 0.2127077, 4.7707292, -4.2725652
1891022311924792, 0, -0.3663895, 0.2291501, 0.0423528, 0.2484833, 5.1430051, -4.3613306
1891022321886792, 0, -0.3399576, 0.2169645, 0.0390316, 0.2405498, 5.6447617, -4.4774890
1891022331848792, 0, -0.2916657, 0.1554410, 0.0252984, 0.1820215, 6.2126807, -4.5318260
1891022341811792, 0, -0.2025680, 0.1331780, -0.0162895, 0.0419128, 6.8955606, -4.4233017
1891022351773792, 0, -0.1054319, 0.1395552, -0.0676416, -0.1258882, 7.5929604, -4.8120433
1891022361735792, 0, -0.0877059, 0.0890111, -0.1107433, -0.2721341, 8.1920146, -6.0143431
1891022371697792, 0, -0.1642097, 0.0201702, -0.1415952, -0.2932402, 8.7058960, -6.9355275
1891022381660792, 0, -0.2449576, 0.0099232, -0.1584024, -0.2905458, 8.9759344, -6.7012646
1891022391622792, 0, -0.2370224, 0.0380805, -0.1559986, -0.4674779, 9.2227711, -6.2221111
1891022401584792, 0, -0.1078958, 0.0532193, -0.1448485, -0.9083112, 9.5802278, -6.1709175
1891022411546792, 0, 0.0595382, 0.0078308, -0.1633815, -1.2326866, 10.1520387, -6.6015720
1891022421508792, 0, 0.2028519, -0.0761922, -0.2074863, -1.4018349, 10.7392676, -6.7853897
1891022431471792, 0, 0.3548263, -0.1224290, -0.2347246, -1.7480649, 10.9772726, -6.4761328
1891022441433792, 0, 0.5407546, -0.1018561, -0.2210309, -2.1671933, 11.2184212, -6.0948756
1891022451395792, 0, 0.7360559, -0.0467960, -0.1803154, -2.4542963, 11.4508878, -5.7764877
1891022461357792, 0, 0.9093356, -0.0184634, -0.1287263, -2.5924590, 11.6472794, -5.7678058
1891022471320792, 0, 0.9414911, -0.1199618, -0.0802754, -2.5423132, 12.1201460, -8.2077319
1891022481282792, 0, 0.4837536, -0.3501700, -0.0475630, -1.9011964, 13.1826366, -13.2212563
1891022491244792, 0, 0.0606218, -0.2171960, 0.0347188, -0.9445358, 12.5786426, -9.9234641
1891022501206792, 0, -0.1768507, 0.1212950, 0.0531026, -0.4164340, 11.7475708, -6.8488577
1891022511169792, 0, -0.4398956, 0.0780634, 0.0860901, -0.3538641, 12.2189406, -9.4224559
1891022521131792, 0, -0.5747472, -0.0350296, 0.1511616, -0.4150868, 11.8066978, -8.7024532
1891022531093792, 0, -0.5939994, -0.0475438, 0.2179534, -0.2303709, 11.5365097, -7.4281531
1891022541055792, 0, -0.5468261, -0.1102650, 0.3219043, -0.0661624, 11.5107632, -6.8078430
1891022551018792, 0, -0.4096144, -0.2080395, 0.4378530, 0.1585204, 11.4660063, -5.6622752
1891022560980792, 0, -0.1094423, -0.2427796, 0.5391260, 0.4082011, 11.1917766, -3.9362146
1891022570942792, 0, 0.2824306, -0.2298114, 0.5960141, 0.7442523, 11.0164911, -3.3850607
1891022580904792, 0, 0.6099752, -0.2198543, 0.5995148, 1.3925542, 10.9913434, -3.8863683
1891022590867792, 0, 0.7258009, -0.2230376, 0.5101660, 2.2484743, 10.9010811, -5.7083794
1891022600829792, 0, 0.6089962, -0.2025355, 0.3613856, 3.2001952, 10.5651796, -7.1534743
1891022610791792, 0, 0.3322935, -0.1277657, 0.2088701, 3.9080731, 9.8725699, -7.6040373
1891022620753792, 0, -0.0516280, -0.0250225, 0.0445158, 4.3477089, 9.4101814, -7.6992393
1891022630716792, 0, -0.4588065, 0.0754271, -0.1485346, 4.5023373, 9.2594449, -7.4079451
1891022640678792, 0, -0.7993984, 0.1621561, -0.3234619, 4.1116498, 9.0694899, -6.7725165
1891022650640792, 0, -1.0071920, 0.2243956, -0.4036905, 3.1692096, 8.7668193, -5.9439894
1891022660602792, 0, -1.0856438, 0.2691686, -0.3929649, 2.1454884, 8.5054628, -5.2096165
1891022670565792, 0, -1.0627630, 0.2913746, -0.3208044, 1.4194981, 8.1870749, -4.5258385
1891022680527792, 0, -0.9518950, 0.2694363, -0.2016234, 0.9999207, 7.7574683, -3.9107675
1891022690489792, 0, -0.7996528, 0.1753052, -0.0744210, 0.8177495, 7.4923695, -3.3985327
